     ,subject,trial,fix_num,event_duration,leftrating,rightrating,rt     ,choice,roi,computed_rt,num_fixations,rev_fix_num,temp     ,corr_fix_duration
0    ,10.0   ,1    ,1.0    ,98.0          ,4.0       ,2.0        ,3808.0 ,1.0   ,1.0,3820.0     ,7.0          ,7.0        ,350.2857 ,350.2857         
1    ,10.0   ,1    ,2.0    ,426.0         ,4.0       ,2.0        ,3808.0 ,1.0   ,2.0,3820.0     ,7.0          ,6.0        ,450.35226,426.0            
2    ,10.0   ,1    ,3.0    ,319.0         ,4.0       ,2.0        ,3808.0 ,1.0   ,1.0,3820.0     ,7.0          ,5.0        ,385.79688,319.0            
3    ,10.0   ,1    ,4.0    ,259.0         ,4.0       ,2.0        ,3808.0 ,1.0   ,2.0,3820.0     ,7.0          ,4.0        ,486.14285,259.0            
4    ,10.0   ,1    ,5.0    ,1472.0        ,4.0       ,2.0        ,3808.0 ,1.0   ,1.0,3820.0     ,7.0          ,3.0        ,573.8571 ,1472.0           
5    ,10.0   ,1    ,6.0    ,382.0         ,4.0       ,2.0        ,3808.0 ,1.0   ,2.0,3820.0     ,7.0          ,2.0        ,535.125  ,382.0            
6    ,10.0   ,1    ,7.0    ,217.0         ,4.0       ,2.0        ,3808.0 ,1.0   ,1.0,3820.0     ,7.0          ,1.0        ,647.3333 ,217.0            
7    ,10.0   ,2    ,1.0    ,299.0         ,3.0       ,2.0        ,1913.0 ,1.0   ,2.0,1936.0     ,4.0          ,4.0        ,350.2857 ,299.0            
8    ,10.0   ,2    ,2.0    ,397.0         ,3.0       ,2.0        ,1913.0 ,1.0   ,1.0,1936.0     ,4.0          ,3.0        ,450.35226,397.0            
9    ,10.0   ,2    ,3.0    ,499.0         ,3.0       ,2.0        ,1913.0 ,1.0   ,2.0,1936.0     ,4.0          ,2.0        ,385.79688,499.0            
10   ,10.0   ,2    ,4.0    ,301.0         ,3.0       ,2.0        ,1913.0 ,1.0   ,1.0,1936.0     ,4.0          ,1.0        ,486.14285,301.0            
11   ,10.0   ,3    ,1.0    ,540.0         ,5.0       ,10.0       ,1121.0 ,0.0   ,1.0,1136.0     ,2.0          ,2.0        ,350.2857 ,540.0            
12   ,10.0   ,3    ,2.0    ,262.0         ,5.0       ,10.0       ,1121.0 ,0.0   ,2.0,1136.0     ,2.0          ,1.0        ,450.35226,262.0            
13   ,10.0   ,4    ,1.0    ,341.0         ,6.0       ,6.0        ,2051.0 ,0.0   ,1.0,2069.0     ,4.0          ,4.0        ,350.2857 ,341.0            
14   ,10.0   ,4    ,2.0    ,618.0         ,6.0       ,6.0        ,2051.0 ,0.0   ,2.0,2069.0     ,4.0          ,3.0        ,450.35226,618.0            
15   ,10.0   ,4    ,3.0    ,402.0         ,6.0       ,6.0        ,2051.0 ,0.0   ,1.0,2069.0     ,4.0          ,2.0        ,385.79688,402.0            
16   ,10.0   ,4    ,4.0    ,239.0         ,6.0       ,6.0        ,2051.0 ,0.0   ,2.0,2069.0     ,4.0          ,1.0        ,486.14285,239.0            
17   ,10.0   ,5    ,1.0    ,316.0         ,6.0       ,7.0        ,1655.0 ,0.0   ,1.0,1674.0     ,3.0          ,3.0        ,350.2857 ,316.0            
18   ,10.0   ,5    ,2.0    ,700.0         ,6.0       ,7.0        ,1655.0 ,0.0   ,2.0,1674.0     ,3.0          ,2.0        ,450.35226,700.0            
19   ,10.0   ,5    ,3.0    ,203.0         ,6.0       ,7.0        ,1655.0 ,0.0   ,1.0,1674.0     ,3.0          ,1.0        ,385.79688,203.0            
20   ,10.0   ,9    ,1.0    ,197.0         ,6.0       ,2.0        ,2504.0 ,1.0   ,2.0,2527.0     ,6.0          ,6.0        ,350.2857 ,197.0            
21   ,10.0   ,9    ,2.0    ,180.0         ,6.0       ,2.0        ,2504.0 ,1.0   ,1.0,2527.0     ,6.0          ,5.0        ,450.35226,180.0            
22   ,10.0   ,9    ,3.0    ,416.0         ,6.0       ,2.0        ,2504.0 ,1.0   ,2.0,2527.0     ,6.0          ,4.0        ,385.79688,416.0            
23   ,10.0   ,9    ,4.0    ,697.0         ,6.0       ,2.0        ,2504.0 ,1.0   ,1.0,2527.0     ,6.0          ,3.0        ,486.14285,697.0            
24   ,10.0   ,9    ,5.0    ,419.0         ,6.0       ,2.0        ,2504.0 ,1.0   ,2.0,2527.0     ,6.0          ,2.0        ,573.8571 ,419.0            
25   ,10.0   ,9    ,6.0    ,260.0         ,6.0       ,2.0        ,2504.0 ,1.0   ,1.0,2527.0     ,6.0          ,1.0        ,535.125  ,260.0            
26   ,10.0   ,10   ,1.0    ,339.0         ,3.0       ,3.0        ,2002.0 ,1.0   ,1.0,2010.0     ,3.0          ,3.0        ,350.2857 ,339.0            
27   ,10.0   ,10   ,2.0    ,940.0         ,3.0       ,3.0        ,2002.0 ,1.0   ,2.0,2010.0     ,3.0          ,2.0        ,450.35226,940.0            
28   ,10.0   ,10   ,3.0    ,399.0         ,3.0       ,3.0        ,2002.0 ,1.0   ,1.0,2010.0     ,3.0          ,1.0        ,385.79688,399.0            
29   ,10.0   ,11   ,1.0    ,1057.0        ,6.0       ,5.0        ,1426.0 ,1.0   ,1.0,1433.0     ,1.0          ,1.0        ,350.2857 ,1057.0           
30   ,10.0   ,16   ,1.0    ,340.0         ,5.0       ,8.0        ,1065.0 ,0.0   ,1.0,1091.0     ,2.0          ,2.0        ,350.2857 ,340.0            
31   ,10.0   ,16   ,2.0    ,420.0         ,5.0       ,8.0        ,1065.0 ,0.0   ,2.0,1091.0     ,2.0          ,1.0        ,450.35226,420.0            
32   ,10.0   ,17   ,1.0    ,356.0         ,6.0       ,8.0        ,1209.0 ,1.0   ,1.0,1234.0     ,3.0          ,3.0        ,350.2857 ,356.0            
33   ,10.0   ,17   ,2.0    ,499.0         ,6.0       ,8.0        ,1209.0 ,1.0   ,2.0,1234.0     ,3.0          ,2.0        ,450.35226,499.0            
34   ,10.0   ,17   ,3.0    ,20.0          ,6.0       ,8.0        ,1209.0 ,1.0   ,1.0,1234.0     ,3.0          ,1.0        ,385.79688,20.0             
35   ,10.0   ,18   ,1.0    ,1356.0        ,4.0       ,6.0        ,1604.0 ,0.0   ,1.0,1595.0     ,1.0          ,1.0        ,350.2857 ,1356.0           
36   ,10.0   ,19   ,1.0    ,458.0         ,2.0       ,6.0        ,1439.0 ,0.0   ,1.0,1453.0     ,3.0          ,3.0        ,350.2857 ,458.0            
37   ,10.0   ,19   ,2.0    ,516.0         ,2.0       ,6.0        ,1439.0 ,0.0   ,2.0,1453.0     ,3.0          ,2.0        ,450.35226,516.0            
38   ,10.0   ,19   ,3.0    ,200.0         ,2.0       ,6.0        ,1439.0 ,0.0   ,1.0,1453.0     ,3.0          ,1.0        ,385.79688,200.0            
39   ,10.0   ,20   ,1.0    ,1237.0        ,9.0       ,9.0        ,5744.0 ,0.0   ,1.0,5759.0     ,8.0          ,8.0        ,350.2857 ,1237.0           
40   ,10.0   ,20   ,2.0    ,538.0         ,9.0       ,9.0        ,5744.0 ,0.0   ,2.0,5759.0     ,8.0          ,7.0        ,450.35226,538.0            
41   ,10.0   ,20   ,3.0    ,281.0         ,9.0       ,9.0        ,5744.0 ,0.0   ,1.0,5759.0     ,8.0          ,6.0        ,385.79688,281.0            
42   ,10.0   ,20   ,4.0    ,219.0         ,9.0       ,9.0        ,5744.0 ,0.0   ,2.0,5759.0     ,8.0          ,5.0        ,486.14285,219.0            
43   ,10.0   ,20   ,5.0    ,738.0         ,9.0       ,9.0        ,5744.0 ,0.0   ,1.0,5759.0     ,8.0          ,4.0        ,573.8571 ,738.0            
44   ,10.0   ,20   ,6.0    ,1515.0        ,9.0       ,9.0        ,5744.0 ,0.0   ,2.0,5759.0     ,8.0          ,3.0        ,535.125  ,1515.0           
45   ,10.0   ,20   ,7.0    ,498.0         ,9.0       ,9.0        ,5744.0 ,0.0   ,1.0,5759.0     ,8.0          ,2.0        ,647.3333 ,498.0            
46   ,10.0   ,20   ,8.0    ,200.0         ,9.0       ,9.0        ,5744.0 ,0.0   ,2.0,5759.0     ,8.0          ,1.0        ,419.0    ,200.0            
47   ,10.0   ,22   ,1.0    ,598.0         ,1.0       ,5.0        ,1270.0 ,0.0   ,1.0,1276.0     ,2.0          ,2.0        ,350.2857 ,598.0            
48   ,10.0   ,22   ,2.0    ,319.0         ,1.0       ,5.0        ,1270.0 ,0.0   ,2.0,1276.0     ,2.0          ,1.0        ,450.35226,319.0            
49   ,10.0   ,23   ,1.0    ,281.0         ,4.0       ,3.0        ,1452.0 ,1.0   ,1.0,1455.0     ,3.0          ,3.0        ,350.2857 ,281.0            
50   ,10.0   ,23   ,2.0    ,299.0         ,4.0       ,3.0        ,1452.0 ,1.0   ,2.0,1455.0     ,3.0          ,2.0        ,450.35226,299.0            
51   ,10.0   ,23   ,3.0    ,419.0         ,4.0       ,3.0        ,1452.0 ,1.0   ,1.0,1455.0     ,3.0          ,1.0        ,385.79688,419.0            
52   ,10.0   ,24   ,1.0    ,319.0         ,2.0       ,2.0        ,3525.0 ,0.0   ,1.0,3483.0     ,6.0          ,6.0        ,350.2857 ,319.0            
53   ,10.0   ,24   ,2.0    ,578.0         ,2.0       ,2.0        ,3525.0 ,0.0   ,2.0,3483.0     ,6.0          ,5.0        ,450.35226,578.0            
54   ,10.0   ,24   ,3.0    ,298.0         ,2.0       ,2.0        ,3525.0 ,0.0   ,1.0,3483.0     ,6.0          ,4.0        ,385.79688,298.0            
55   ,10.0   ,24   ,4.0    ,896.0         ,2.0       ,2.0        ,3525.0 ,0.0   ,2.0,3483.0     ,6.0          ,3.0        ,486.14285,896.0            
56   ,10.0   ,24   ,5.0    ,862.0         ,2.0       ,2.0        ,3525.0 ,0.0   ,1.0,3483.0     ,6.0          ,2.0        ,573.8571 ,862.0            
57   ,10.0   ,24   ,6.0    ,71.0          ,2.0       ,2.0        ,3525.0 ,0.0   ,2.0,3483.0     ,6.0          ,1.0        ,535.125  ,71.0             
58   ,10.0   ,25   ,1.0    ,318.0         ,4.0       ,3.0        ,3439.0 ,1.0   ,1.0,3447.0     ,5.0          ,5.0        ,350.2857 ,318.0            
59   ,10.0   ,25   ,2.0    ,739.0         ,4.0       ,3.0        ,3439.0 ,1.0   ,2.0,3447.0     ,5.0          ,4.0        ,450.35226,739.0            
60   ,10.0   ,25   ,3.0    ,563.0         ,4.0       ,3.0        ,3439.0 ,1.0   ,1.0,3447.0     ,5.0          ,3.0        ,385.79688,563.0            
61   ,10.0   ,25   ,4.0    ,873.0         ,4.0       ,3.0        ,3439.0 ,1.0   ,2.0,3447.0     ,5.0          ,2.0        ,486.14285,873.0            
62   ,10.0   ,25   ,5.0    ,658.0         ,4.0       ,3.0        ,3439.0 ,1.0   ,1.0,3447.0     ,5.0          ,1.0        ,573.8571 ,658.0            
63   ,10.0   ,26   ,1.0    ,441.0         ,1.0       ,2.0        ,3582.0 ,1.0   ,1.0,3587.0     ,4.0          ,4.0        ,350.2857 ,441.0            
64   ,10.0   ,26   ,2.0    ,518.0         ,1.0       ,2.0        ,3582.0 ,1.0   ,2.0,3587.0     ,4.0          ,3.0        ,450.35226,518.0            
65   ,10.0   ,26   ,3.0    ,1632.0        ,1.0       ,2.0        ,3582.0 ,1.0   ,1.0,3587.0     ,4.0          ,2.0        ,385.79688,1632.0           
66   ,10.0   ,26   ,4.0    ,518.0         ,1.0       ,2.0        ,3582.0 ,1.0   ,2.0,3587.0     ,4.0          ,1.0        ,486.14285,518.0            
67   ,10.0   ,27   ,1.0    ,320.0         ,6.0       ,8.0        ,2023.0 ,1.0   ,1.0,2034.0     ,5.0          ,5.0        ,350.2857 ,320.0            
68   ,10.0   ,27   ,2.0    ,280.0         ,6.0       ,8.0        ,2023.0 ,1.0   ,2.0,2034.0     ,5.0          ,4.0        ,450.35226,280.0            
69   ,10.0   ,27   ,3.0    ,582.0         ,6.0       ,8.0        ,2023.0 ,1.0   ,1.0,2034.0     ,5.0          ,3.0        ,385.79688,582.0            
70   ,10.0   ,27   ,4.0    ,399.0         ,6.0       ,8.0        ,2023.0 ,1.0   ,2.0,2034.0     ,5.0          ,2.0        ,486.14285,399.0            
71   ,10.0   ,27   ,5.0    ,80.0          ,6.0       ,8.0        ,2023.0 ,1.0   ,1.0,2034.0     ,5.0          ,1.0        ,573.8571 ,80.0             
72   ,10.0   ,28   ,1.0    ,346.0         ,2.0       ,5.0        ,1727.0 ,0.0   ,1.0,1735.0     ,3.0          ,3.0        ,350.2857 ,346.0            
73   ,10.0   ,28   ,2.0    ,717.0         ,2.0       ,5.0        ,1727.0 ,0.0   ,2.0,1735.0     ,3.0          ,2.0        ,450.35226,717.0            
74   ,10.0   ,28   ,3.0    ,360.0         ,2.0       ,5.0        ,1727.0 ,0.0   ,1.0,1735.0     ,3.0          ,1.0        ,385.79688,360.0            
75   ,10.0   ,29   ,1.0    ,518.0         ,8.0       ,3.0        ,1368.0 ,1.0   ,1.0,1394.0     ,3.0          ,3.0        ,350.2857 ,518.0            
76   ,10.0   ,29   ,2.0    ,498.0         ,8.0       ,3.0        ,1368.0 ,1.0   ,2.0,1394.0     ,3.0          ,2.0        ,450.35226,498.0            
77   ,10.0   ,29   ,3.0    ,81.0          ,8.0       ,3.0        ,1368.0 ,1.0   ,1.0,1394.0     ,3.0          ,1.0        ,385.79688,81.0             
78   ,10.0   ,30   ,1.0    ,438.0         ,10.0      ,5.0        ,1568.0 ,1.0   ,1.0,1574.0     ,3.0          ,3.0        ,350.2857 ,438.0            
79   ,10.0   ,30   ,2.0    ,458.0         ,10.0      ,5.0        ,1568.0 ,1.0   ,2.0,1574.0     ,3.0          ,2.0        ,450.35226,458.0            
80   ,10.0   ,30   ,3.0    ,358.0         ,10.0      ,5.0        ,1568.0 ,1.0   ,1.0,1574.0     ,3.0          ,1.0        ,385.79688,358.0            
81   ,10.0   ,31   ,1.0    ,219.0         ,2.0       ,4.0        ,1697.0 ,0.0   ,1.0,1715.0     ,4.0          ,4.0        ,350.2857 ,219.0            
82   ,10.0   ,31   ,2.0    ,421.0         ,2.0       ,4.0        ,1697.0 ,0.0   ,2.0,1715.0     ,4.0          ,3.0        ,450.35226,421.0            
83   ,10.0   ,31   ,3.0    ,479.0         ,2.0       ,4.0        ,1697.0 ,0.0   ,1.0,1715.0     ,4.0          ,2.0        ,385.79688,479.0            
84   ,10.0   ,31   ,4.0    ,140.0         ,2.0       ,4.0        ,1697.0 ,0.0   ,2.0,1715.0     ,4.0          ,1.0        ,486.14285,140.0            
85   ,10.0   ,32   ,1.0    ,339.0         ,8.0       ,7.0        ,1595.0 ,0.0   ,1.0,1595.0     ,3.0          ,3.0        ,350.2857 ,339.0            
86   ,10.0   ,32   ,2.0    ,362.0         ,8.0       ,7.0        ,1595.0 ,0.0   ,2.0,1595.0     ,3.0          ,2.0        ,450.35226,362.0            
87   ,10.0   ,32   ,3.0    ,618.0         ,8.0       ,7.0        ,1595.0 ,0.0   ,1.0,1595.0     ,3.0          ,1.0        ,385.79688,618.0            
88   ,10.0   ,33   ,1.0    ,196.0         ,3.0       ,3.0        ,2701.0 ,1.0   ,1.0,2707.0     ,5.0          ,5.0        ,350.2857 ,196.0            
89   ,10.0   ,33   ,2.0    ,421.0         ,3.0       ,3.0        ,2701.0 ,1.0   ,2.0,2707.0     ,5.0          ,4.0        ,450.35226,421.0            
90   ,10.0   ,33   ,3.0    ,720.0         ,3.0       ,3.0        ,2701.0 ,1.0   ,1.0,2707.0     ,5.0          ,3.0        ,385.79688,720.0            
91   ,10.0   ,33   ,4.0    ,418.0         ,3.0       ,3.0        ,2701.0 ,1.0   ,2.0,2707.0     ,5.0          ,2.0        ,486.14285,418.0            
92   ,10.0   ,33   ,5.0    ,339.0         ,3.0       ,3.0        ,2701.0 ,1.0   ,1.0,2707.0     ,5.0          ,1.0        ,573.8571 ,339.0            
93   ,10.0   ,34   ,1.0    ,299.0         ,2.0       ,7.0        ,1471.0 ,0.0   ,1.0,1494.0     ,3.0          ,3.0        ,350.2857 ,299.0            
94   ,10.0   ,34   ,2.0    ,481.0         ,2.0       ,7.0        ,1471.0 ,0.0   ,2.0,1494.0     ,3.0          ,2.0        ,450.35226,481.0            
95   ,10.0   ,34   ,3.0    ,320.0         ,2.0       ,7.0        ,1471.0 ,0.0   ,1.0,1494.0     ,3.0          ,1.0        ,385.79688,320.0            
96   ,10.0   ,35   ,1.0    ,299.0         ,4.0       ,7.0        ,2055.0 ,0.0   ,1.0,2072.0     ,4.0          ,4.0        ,350.2857 ,299.0            
97   ,10.0   ,35   ,2.0    ,840.0         ,4.0       ,7.0        ,2055.0 ,0.0   ,2.0,2072.0     ,4.0          ,3.0        ,450.35226,840.0            
98   ,10.0   ,35   ,3.0    ,599.0         ,4.0       ,7.0        ,2055.0 ,0.0   ,1.0,2072.0     ,4.0          ,2.0        ,385.79688,599.0            
99   ,10.0   ,35   ,4.0    ,59.0          ,4.0       ,7.0        ,2055.0 ,0.0   ,2.0,2072.0     ,4.0          ,1.0        ,486.14285,59.0             
100  ,10.0   ,36   ,1.0    ,217.0         ,4.0       ,9.0        ,1303.0 ,0.0   ,2.0,1151.0     ,3.0          ,3.0        ,350.2857 ,217.0            
101  ,10.0   ,36   ,2.0    ,737.0         ,4.0       ,9.0        ,1303.0 ,0.0   ,1.0,1151.0     ,3.0          ,2.0        ,450.35226,737.0            
102  ,10.0   ,36   ,3.0    ,20.0          ,4.0       ,9.0        ,1303.0 ,0.0   ,2.0,1151.0     ,3.0          ,1.0        ,385.79688,20.0             
103  ,10.0   ,38   ,1.0    ,216.0         ,3.0       ,2.0        ,1304.0 ,0.0   ,1.0,1315.0     ,2.0          ,2.0        ,350.2857 ,216.0            
104  ,10.0   ,38   ,2.0    ,640.0         ,3.0       ,2.0        ,1304.0 ,0.0   ,2.0,1315.0     ,2.0          ,1.0        ,450.35226,640.0            
105  ,10.0   ,39   ,1.0    ,339.0         ,6.0       ,5.0        ,1581.0 ,1.0   ,1.0,1595.0     ,3.0          ,3.0        ,350.2857 ,339.0            
106  ,10.0   ,39   ,2.0    ,179.0         ,6.0       ,5.0        ,1581.0 ,1.0   ,2.0,1595.0     ,3.0          ,2.0        ,450.35226,179.0            
107  ,10.0   ,39   ,3.0    ,818.0         ,6.0       ,5.0        ,1581.0 ,1.0   ,1.0,1595.0     ,3.0          ,1.0        ,385.79688,818.0            
108  ,10.0   ,40   ,1.0    ,399.0         ,3.0       ,2.0        ,7866.0 ,1.0   ,1.0,7873.0     ,9.0          ,9.0        ,350.2857 ,399.0            
109  ,10.0   ,40   ,2.0    ,420.0         ,3.0       ,2.0        ,7866.0 ,1.0   ,2.0,7873.0     ,9.0          ,8.0        ,450.35226,420.0            
110  ,10.0   ,40   ,3.0    ,740.0         ,3.0       ,2.0        ,7866.0 ,1.0   ,1.0,7873.0     ,9.0          ,7.0        ,385.79688,740.0            
111  ,10.0   ,40   ,4.0    ,2210.0        ,3.0       ,2.0        ,7866.0 ,1.0   ,2.0,7873.0     ,9.0          ,6.0        ,486.14285,2210.0           
112  ,10.0   ,40   ,5.0    ,1057.0        ,3.0       ,2.0        ,7866.0 ,1.0   ,1.0,7873.0     ,9.0          ,5.0        ,573.8571 ,1057.0           
113  ,10.0   ,40   ,6.0    ,458.0         ,3.0       ,2.0        ,7866.0 ,1.0   ,2.0,7873.0     ,9.0          ,4.0        ,535.125  ,458.0            
114  ,10.0   ,40   ,7.0    ,737.0         ,3.0       ,2.0        ,7866.0 ,1.0   ,1.0,7873.0     ,9.0          ,3.0        ,647.3333 ,737.0            
115  ,10.0   ,40   ,8.0    ,798.0         ,3.0       ,2.0        ,7866.0 ,1.0   ,2.0,7873.0     ,9.0          ,2.0        ,419.0    ,798.0            
116  ,10.0   ,40   ,9.0    ,735.0         ,3.0       ,2.0        ,7866.0 ,1.0   ,1.0,7873.0     ,9.0          ,1.0        ,497.5    ,735.0            
117  ,10.0   ,41   ,1.0    ,539.0         ,10.0      ,5.0        ,1291.0 ,1.0   ,1.0,1314.0     ,3.0          ,3.0        ,350.2857 ,539.0            
118  ,10.0   ,41   ,2.0    ,259.0         ,10.0      ,5.0        ,1291.0 ,1.0   ,2.0,1314.0     ,3.0          ,2.0        ,450.35226,259.0            
119  ,10.0   ,41   ,3.0    ,201.0         ,10.0      ,5.0        ,1291.0 ,1.0   ,1.0,1314.0     ,3.0          ,1.0        ,385.79688,201.0            
120  ,10.0   ,42   ,1.0    ,299.0         ,5.0       ,1.0        ,1433.0 ,1.0   ,1.0,1435.0     ,3.0          ,3.0        ,350.2857 ,299.0            
121  ,10.0   ,42   ,2.0    ,420.0         ,5.0       ,1.0        ,1433.0 ,1.0   ,2.0,1435.0     ,3.0          ,2.0        ,450.35226,420.0            
122  ,10.0   ,42   ,3.0    ,359.0         ,5.0       ,1.0        ,1433.0 ,1.0   ,1.0,1435.0     ,3.0          ,1.0        ,385.79688,359.0            
123  ,10.0   ,43   ,1.0    ,579.0         ,9.0       ,6.0        ,1250.0 ,1.0   ,1.0,1256.0     ,2.0          ,2.0        ,350.2857 ,579.0            
124  ,10.0   ,43   ,2.0    ,398.0         ,9.0       ,6.0        ,1250.0 ,1.0   ,2.0,1256.0     ,2.0          ,1.0        ,450.35226,398.0            
125  ,10.0   ,44   ,1.0    ,399.0         ,6.0       ,6.0        ,1409.0 ,0.0   ,1.0,1415.0     ,3.0          ,3.0        ,350.2857 ,399.0            
126  ,10.0   ,44   ,2.0    ,642.0         ,6.0       ,6.0        ,1409.0 ,0.0   ,2.0,1415.0     ,3.0          ,2.0        ,450.35226,642.0            
127  ,10.0   ,44   ,3.0    ,76.0          ,6.0       ,6.0        ,1409.0 ,0.0   ,1.0,1415.0     ,3.0          ,1.0        ,385.79688,76.0             
128  ,10.0   ,45   ,1.0    ,298.0         ,10.0      ,9.0        ,1342.0 ,0.0   ,1.0,1236.0     ,3.0          ,3.0        ,350.2857 ,298.0            
129  ,10.0   ,45   ,2.0    ,541.0         ,10.0      ,9.0        ,1342.0 ,0.0   ,2.0,1236.0     ,3.0          ,2.0        ,450.35226,541.0            
130  ,10.0   ,45   ,3.0    ,120.0         ,10.0      ,9.0        ,1342.0 ,0.0   ,1.0,1236.0     ,3.0          ,1.0        ,385.79688,120.0            
131  ,10.0   ,46   ,1.0    ,216.0         ,5.0       ,2.0        ,1363.0 ,0.0   ,1.0,1273.0     ,3.0          ,3.0        ,350.2857 ,216.0            
132  ,10.0   ,46   ,2.0    ,79.0          ,5.0       ,2.0        ,1363.0 ,0.0   ,2.0,1273.0     ,3.0          ,2.0        ,450.35226,79.0             
133  ,10.0   ,46   ,3.0    ,20.0          ,5.0       ,2.0        ,1363.0 ,0.0   ,1.0,1273.0     ,3.0          ,1.0        ,385.79688,20.0             
134  ,10.0   ,47   ,1.0    ,387.0         ,4.0       ,3.0        ,2243.0 ,1.0   ,1.0,2249.0     ,5.0          ,5.0        ,350.2857 ,387.0            
135  ,10.0   ,47   ,2.0    ,239.0         ,4.0       ,3.0        ,2243.0 ,1.0   ,2.0,2249.0     ,5.0          ,4.0        ,450.35226,239.0            
136  ,10.0   ,47   ,3.0    ,518.0         ,4.0       ,3.0        ,2243.0 ,1.0   ,1.0,2249.0     ,5.0          ,3.0        ,385.79688,518.0            
137  ,10.0   ,47   ,4.0    ,618.0         ,4.0       ,3.0        ,2243.0 ,1.0   ,2.0,2249.0     ,5.0          ,2.0        ,486.14285,618.0            
138  ,10.0   ,47   ,5.0    ,219.0         ,4.0       ,3.0        ,2243.0 ,1.0   ,1.0,2249.0     ,5.0          ,1.0        ,573.8571 ,219.0            
139  ,10.0   ,48   ,1.0    ,259.0         ,3.0       ,4.0        ,1288.0 ,0.0   ,2.0,1296.0     ,2.0          ,2.0        ,350.2857 ,259.0            
140  ,10.0   ,48   ,2.0    ,539.0         ,3.0       ,4.0        ,1288.0 ,0.0   ,1.0,1296.0     ,2.0          ,1.0        ,450.35226,539.0            
141  ,10.0   ,49   ,1.0    ,140.0         ,7.0       ,2.0        ,1112.0 ,1.0   ,2.0,1135.0     ,2.0          ,2.0        ,350.2857 ,350.2857         
142  ,10.0   ,49   ,2.0    ,517.0         ,7.0       ,2.0        ,1112.0 ,1.0   ,1.0,1135.0     ,2.0          ,1.0        ,450.35226,517.0            
143  ,10.0   ,50   ,1.0    ,225.0         ,5.0       ,8.0        ,1538.0 ,0.0   ,1.0,1554.0     ,4.0          ,4.0        ,350.2857 ,225.0            
144  ,10.0   ,50   ,2.0    ,517.0         ,5.0       ,8.0        ,1538.0 ,0.0   ,2.0,1554.0     ,4.0          ,3.0        ,450.35226,517.0            
145  ,10.0   ,50   ,3.0    ,478.0         ,5.0       ,8.0        ,1538.0 ,0.0   ,1.0,1554.0     ,4.0          ,2.0        ,385.79688,478.0            
146  ,10.0   ,50   ,4.0    ,20.0          ,5.0       ,8.0        ,1538.0 ,0.0   ,2.0,1554.0     ,4.0          ,1.0        ,486.14285,20.0             
147  ,10.0   ,51   ,1.0    ,339.0         ,10.0      ,5.0        ,807.0  ,1.0   ,1.0,816.0      ,2.0          ,2.0        ,350.2857 ,339.0            
148  ,10.0   ,51   ,2.0    ,179.0         ,10.0      ,5.0        ,807.0  ,1.0   ,2.0,816.0      ,2.0          ,1.0        ,450.35226,179.0            
149  ,10.0   ,52   ,1.0    ,339.0         ,7.0       ,2.0        ,1117.0 ,1.0   ,1.0,1127.0     ,3.0          ,3.0        ,350.2857 ,339.0            
150  ,10.0   ,52   ,2.0    ,419.0         ,7.0       ,2.0        ,1117.0 ,1.0   ,2.0,1127.0     ,3.0          ,2.0        ,450.35226,419.0            
151  ,10.0   ,52   ,3.0    ,60.0          ,7.0       ,2.0        ,1117.0 ,1.0   ,1.0,1127.0     ,3.0          ,1.0        ,385.79688,60.0             
152  ,10.0   ,53   ,1.0    ,199.0         ,4.0       ,3.0        ,4096.0 ,1.0   ,2.0,4105.0     ,4.0          ,4.0        ,350.2857 ,199.0            
153  ,10.0   ,53   ,2.0    ,278.0         ,4.0       ,3.0        ,4096.0 ,1.0   ,1.0,4105.0     ,4.0          ,3.0        ,450.35226,278.0            
154  ,10.0   ,53   ,3.0    ,2012.0        ,4.0       ,3.0        ,4096.0 ,1.0   ,2.0,4105.0     ,4.0          ,2.0        ,385.79688,2012.0           
155  ,10.0   ,53   ,4.0    ,1236.0        ,4.0       ,3.0        ,4096.0 ,1.0   ,1.0,4105.0     ,4.0          ,1.0        ,486.14285,1236.0           
156  ,10.0   ,54   ,1.0    ,359.0         ,6.0       ,2.0        ,1119.0 ,1.0   ,1.0,1137.0     ,3.0          ,3.0        ,350.2857 ,359.0            
157  ,10.0   ,54   ,2.0    ,398.0         ,6.0       ,2.0        ,1119.0 ,1.0   ,2.0,1137.0     ,3.0          ,2.0        ,450.35226,398.0            
158  ,10.0   ,54   ,3.0    ,161.0         ,6.0       ,2.0        ,1119.0 ,1.0   ,1.0,1137.0     ,3.0          ,1.0        ,385.79688,161.0            
159  ,10.0   ,55   ,1.0    ,380.0         ,4.0       ,7.0        ,1970.0 ,0.0   ,1.0,1994.0     ,4.0          ,4.0        ,350.2857 ,380.0            
160  ,10.0   ,55   ,2.0    ,460.0         ,4.0       ,7.0        ,1970.0 ,0.0   ,2.0,1994.0     ,4.0          ,3.0        ,450.35226,460.0            
161  ,10.0   ,55   ,3.0    ,440.0         ,4.0       ,7.0        ,1970.0 ,0.0   ,1.0,1994.0     ,4.0          ,2.0        ,385.79688,440.0            
162  ,10.0   ,55   ,4.0    ,380.0         ,4.0       ,7.0        ,1970.0 ,0.0   ,2.0,1994.0     ,4.0          ,1.0        ,486.14285,380.0            
163  ,10.0   ,56   ,1.0    ,279.0         ,3.0       ,6.0        ,1074.0 ,0.0   ,1.0,1097.0     ,2.0          ,2.0        ,350.2857 ,279.0            
164  ,10.0   ,56   ,2.0    ,281.0         ,3.0       ,6.0        ,1074.0 ,0.0   ,2.0,1097.0     ,2.0          ,1.0        ,450.35226,281.0            
165  ,10.0   ,57   ,1.0    ,240.0         ,9.0       ,4.0        ,1668.0 ,1.0   ,1.0,1674.0     ,5.0          ,5.0        ,350.2857 ,240.0            
166  ,10.0   ,57   ,2.0    ,316.0         ,9.0       ,4.0        ,1668.0 ,1.0   ,2.0,1674.0     ,5.0          ,4.0        ,450.35226,316.0            
167  ,10.0   ,57   ,3.0    ,200.0         ,9.0       ,4.0        ,1668.0 ,1.0   ,1.0,1674.0     ,5.0          ,3.0        ,385.79688,200.0            
168  ,10.0   ,57   ,4.0    ,378.0         ,9.0       ,4.0        ,1668.0 ,1.0   ,2.0,1674.0     ,5.0          ,2.0        ,486.14285,378.0            
169  ,10.0   ,57   ,5.0    ,59.0          ,9.0       ,4.0        ,1668.0 ,1.0   ,1.0,1674.0     ,5.0          ,1.0        ,573.8571 ,59.0             
170  ,10.0   ,58   ,1.0    ,219.0         ,1.0       ,3.0        ,2089.0 ,0.0   ,1.0,2113.0     ,4.0          ,4.0        ,350.2857 ,219.0            
171  ,10.0   ,58   ,2.0    ,338.0         ,1.0       ,3.0        ,2089.0 ,0.0   ,2.0,2113.0     ,4.0          ,3.0        ,450.35226,338.0            
172  ,10.0   ,58   ,3.0    ,239.0         ,1.0       ,3.0        ,2089.0 ,0.0   ,1.0,2113.0     ,4.0          ,2.0        ,385.79688,239.0            
173  ,10.0   ,58   ,4.0    ,781.0         ,1.0       ,3.0        ,2089.0 ,0.0   ,2.0,2113.0     ,4.0          ,1.0        ,486.14285,781.0            
174  ,10.0   ,59   ,1.0    ,179.0         ,2.0       ,7.0        ,2241.0 ,0.0   ,2.0,2262.0     ,5.0          ,5.0        ,350.2857 ,179.0            
175  ,10.0   ,59   ,2.0    ,259.0         ,2.0       ,7.0        ,2241.0 ,0.0   ,1.0,2262.0     ,5.0          ,4.0        ,450.35226,259.0            
176  ,10.0   ,59   ,3.0    ,279.0         ,2.0       ,7.0        ,2241.0 ,0.0   ,2.0,2262.0     ,5.0          ,3.0        ,385.79688,279.0            
177  ,10.0   ,59   ,4.0    ,818.0         ,2.0       ,7.0        ,2241.0 ,0.0   ,1.0,2262.0     ,5.0          ,2.0        ,486.14285,818.0            
178  ,10.0   ,59   ,5.0    ,20.0          ,2.0       ,7.0        ,2241.0 ,0.0   ,2.0,2262.0     ,5.0          ,1.0        ,573.8571 ,20.0             
179  ,10.0   ,60   ,1.0    ,379.0         ,3.0       ,7.0        ,937.0  ,0.0   ,1.0,955.0      ,2.0          ,2.0        ,350.2857 ,379.0            
180  ,10.0   ,60   ,2.0    ,319.0         ,3.0       ,7.0        ,937.0  ,0.0   ,2.0,955.0      ,2.0          ,1.0        ,450.35226,319.0            
181  ,10.0   ,61   ,1.0    ,219.0         ,6.0       ,8.0        ,1251.0 ,1.0   ,1.0,1256.0     ,3.0          ,3.0        ,350.2857 ,219.0            
182  ,10.0   ,61   ,2.0    ,419.0         ,6.0       ,8.0        ,1251.0 ,1.0   ,2.0,1256.0     ,3.0          ,2.0        ,450.35226,419.0            
183  ,10.0   ,61   ,3.0    ,179.0         ,6.0       ,8.0        ,1251.0 ,1.0   ,1.0,1256.0     ,3.0          ,1.0        ,385.79688,179.0            
184  ,10.0   ,62   ,1.0    ,220.0         ,8.0       ,6.0        ,6836.0 ,1.0   ,1.0,6836.0     ,7.0          ,7.0        ,350.2857 ,220.0            
185  ,10.0   ,62   ,2.0    ,1155.0        ,8.0       ,6.0        ,6836.0 ,1.0   ,2.0,6836.0     ,7.0          ,6.0        ,450.35226,1155.0           
186  ,10.0   ,62   ,3.0    ,937.0         ,8.0       ,6.0        ,6836.0 ,1.0   ,1.0,6836.0     ,7.0          ,5.0        ,385.79688,937.0            
187  ,10.0   ,62   ,4.0    ,616.0         ,8.0       ,6.0        ,6836.0 ,1.0   ,2.0,6836.0     ,7.0          ,4.0        ,486.14285,616.0            
188  ,10.0   ,62   ,5.0    ,758.0         ,8.0       ,6.0        ,6836.0 ,1.0   ,1.0,6836.0     ,7.0          ,3.0        ,573.8571 ,758.0            
189  ,10.0   ,62   ,6.0    ,798.0         ,8.0       ,6.0        ,6836.0 ,1.0   ,2.0,6836.0     ,7.0          ,2.0        ,535.125  ,798.0            
190  ,10.0   ,62   ,7.0    ,1933.0        ,8.0       ,6.0        ,6836.0 ,1.0   ,1.0,6836.0     ,7.0          ,1.0        ,647.3333 ,1933.0           
191  ,10.0   ,63   ,1.0    ,498.0         ,1.0       ,3.0        ,1125.0 ,0.0   ,1.0,1136.0     ,2.0          ,2.0        ,350.2857 ,498.0            
192  ,10.0   ,63   ,2.0    ,339.0         ,1.0       ,3.0        ,1125.0 ,0.0   ,2.0,1136.0     ,2.0          ,1.0        ,450.35226,339.0            
193  ,10.0   ,64   ,1.0    ,461.0         ,9.0       ,4.0        ,801.0  ,1.0   ,1.0,818.0      ,2.0          ,2.0        ,350.2857 ,461.0            
194  ,10.0   ,64   ,2.0    ,100.0         ,9.0       ,4.0        ,801.0  ,1.0   ,2.0,818.0      ,2.0          ,1.0        ,450.35226,100.0            
195  ,10.0   ,65   ,1.0    ,220.0         ,1.0       ,3.0        ,975.0  ,0.0   ,1.0,997.0      ,2.0          ,2.0        ,350.2857 ,220.0            
196  ,10.0   ,65   ,2.0    ,480.0         ,1.0       ,3.0        ,975.0  ,0.0   ,2.0,997.0      ,2.0          ,1.0        ,450.35226,480.0            
197  ,10.0   ,66   ,1.0    ,520.0         ,6.0       ,4.0        ,1514.0 ,1.0   ,1.0,1536.0     ,3.0          ,3.0        ,350.2857 ,520.0            
198  ,10.0   ,66   ,2.0    ,715.0         ,6.0       ,4.0        ,1514.0 ,1.0   ,2.0,1536.0     ,3.0          ,2.0        ,450.35226,715.0            
199  ,10.0   ,66   ,3.0    ,61.0          ,6.0       ,4.0        ,1514.0 ,1.0   ,1.0,1536.0     ,3.0          ,1.0        ,385.79688,61.0             
200  ,10.0   ,67   ,1.0    ,219.0         ,1.0       ,4.0        ,682.0  ,0.0   ,1.0,700.0      ,2.0          ,2.0        ,350.2857 ,219.0            
201  ,10.0   ,67   ,2.0    ,222.0         ,1.0       ,4.0        ,682.0  ,0.0   ,2.0,700.0      ,2.0          ,1.0        ,450.35226,222.0            
202  ,10.0   ,68   ,1.0    ,578.0         ,2.0       ,6.0        ,1323.0 ,0.0   ,1.0,1335.0     ,2.0          ,2.0        ,350.2857 ,578.0            
203  ,10.0   ,68   ,2.0    ,458.0         ,2.0       ,6.0        ,1323.0 ,0.0   ,2.0,1335.0     ,2.0          ,1.0        ,450.35226,458.0            
204  ,10.0   ,69   ,1.0    ,359.0         ,5.0       ,3.0        ,1009.0 ,1.0   ,1.0,1016.0     ,2.0          ,2.0        ,350.2857 ,359.0            
205  ,10.0   ,69   ,2.0    ,398.0         ,5.0       ,3.0        ,1009.0 ,1.0   ,2.0,1016.0     ,2.0          ,1.0        ,450.35226,398.0            
206  ,10.0   ,70   ,1.0    ,339.0         ,6.0       ,9.0        ,1341.0 ,0.0   ,1.0,1356.0     ,3.0          ,3.0        ,350.2857 ,339.0            
207  ,10.0   ,70   ,2.0    ,537.0         ,6.0       ,9.0        ,1341.0 ,0.0   ,2.0,1356.0     ,3.0          ,2.0        ,450.35226,537.0            
208  ,10.0   ,70   ,3.0    ,121.0         ,6.0       ,9.0        ,1341.0 ,0.0   ,1.0,1356.0     ,3.0          ,1.0        ,385.79688,121.0            
209  ,10.0   ,71   ,1.0    ,511.0         ,6.0       ,10.0       ,852.0  ,0.0   ,1.0,860.0      ,2.0          ,2.0        ,350.2857 ,511.0            
210  ,10.0   ,71   ,2.0    ,110.0         ,6.0       ,10.0       ,852.0  ,0.0   ,2.0,860.0      ,2.0          ,1.0        ,450.35226,110.0            
211  ,10.0   ,72   ,1.0    ,179.0         ,2.0       ,6.0        ,832.0  ,0.0   ,1.0,856.0      ,2.0          ,2.0        ,350.2857 ,179.0            
212  ,10.0   ,72   ,2.0    ,240.0         ,2.0       ,6.0        ,832.0  ,0.0   ,2.0,856.0      ,2.0          ,1.0        ,450.35226,240.0            
213  ,10.0   ,73   ,1.0    ,220.0         ,4.0       ,9.0        ,1025.0 ,0.0   ,2.0,1035.0     ,3.0          ,3.0        ,350.2857 ,220.0            
214  ,10.0   ,73   ,2.0    ,458.0         ,4.0       ,9.0        ,1025.0 ,0.0   ,1.0,1035.0     ,3.0          ,2.0        ,450.35226,458.0            
215  ,10.0   ,73   ,3.0    ,39.0          ,4.0       ,9.0        ,1025.0 ,0.0   ,2.0,1035.0     ,3.0          ,1.0        ,385.79688,39.0             
216  ,10.0   ,74   ,1.0    ,498.0         ,4.0       ,9.0        ,1902.0 ,0.0   ,1.0,1913.0     ,4.0          ,4.0        ,350.2857 ,498.0            
217  ,10.0   ,74   ,2.0    ,637.0         ,4.0       ,9.0        ,1902.0 ,0.0   ,2.0,1913.0     ,4.0          ,3.0        ,450.35226,637.0            
218  ,10.0   ,74   ,3.0    ,418.0         ,4.0       ,9.0        ,1902.0 ,0.0   ,1.0,1913.0     ,4.0          ,2.0        ,385.79688,418.0            
219  ,10.0   ,74   ,4.0    ,79.0          ,4.0       ,9.0        ,1902.0 ,0.0   ,2.0,1913.0     ,4.0          ,1.0        ,486.14285,79.0             
220  ,10.0   ,75   ,1.0    ,179.0         ,6.0       ,10.0       ,1277.0 ,0.0   ,1.0,1295.0     ,3.0          ,3.0        ,350.2857 ,179.0            
221  ,10.0   ,75   ,2.0    ,478.0         ,6.0       ,10.0       ,1277.0 ,0.0   ,2.0,1295.0     ,3.0          ,2.0        ,450.35226,478.0            
222  ,10.0   ,75   ,3.0    ,239.0         ,6.0       ,10.0       ,1277.0 ,0.0   ,1.0,1295.0     ,3.0          ,1.0        ,385.79688,239.0            
223  ,10.0   ,76   ,1.0    ,239.0         ,6.0       ,10.0       ,755.0  ,0.0   ,2.0,638.0      ,1.0          ,1.0        ,350.2857 ,239.0            
224  ,10.0   ,77   ,1.0    ,358.0         ,6.0       ,8.0        ,1357.0 ,0.0   ,2.0,1355.0     ,3.0          ,3.0        ,350.2857 ,358.0            
225  ,10.0   ,77   ,2.0    ,319.0         ,6.0       ,8.0        ,1357.0 ,0.0   ,1.0,1355.0     ,3.0          ,2.0        ,450.35226,319.0            
226  ,10.0   ,77   ,3.0    ,179.0         ,6.0       ,8.0        ,1357.0 ,0.0   ,2.0,1355.0     ,3.0          ,1.0        ,385.79688,179.0            
227  ,10.0   ,78   ,1.0    ,299.0         ,2.0       ,1.0        ,1427.0 ,1.0   ,1.0,1434.0     ,3.0          ,3.0        ,350.2857 ,299.0            
228  ,10.0   ,78   ,2.0    ,597.0         ,2.0       ,1.0        ,1427.0 ,1.0   ,2.0,1434.0     ,3.0          ,2.0        ,450.35226,597.0            
229  ,10.0   ,78   ,3.0    ,299.0         ,2.0       ,1.0        ,1427.0 ,1.0   ,1.0,1434.0     ,3.0          ,1.0        ,385.79688,299.0            
230  ,10.0   ,79   ,1.0    ,373.0         ,7.0       ,3.0        ,928.0  ,1.0   ,1.0,937.0      ,2.0          ,2.0        ,350.2857 ,373.0            
231  ,10.0   ,79   ,2.0    ,299.0         ,7.0       ,3.0        ,928.0  ,1.0   ,2.0,937.0      ,2.0          ,1.0        ,450.35226,299.0            
232  ,10.0   ,80   ,1.0    ,402.0         ,2.0       ,4.0        ,1971.0 ,1.0   ,1.0,1973.0     ,3.0          ,3.0        ,350.2857 ,402.0            
233  ,10.0   ,80   ,2.0    ,761.0         ,2.0       ,4.0        ,1971.0 ,1.0   ,2.0,1973.0     ,3.0          ,2.0        ,450.35226,761.0            
234  ,10.0   ,80   ,3.0    ,522.0         ,2.0       ,4.0        ,1971.0 ,1.0   ,1.0,1973.0     ,3.0          ,1.0        ,385.79688,522.0            
235  ,10.0   ,81   ,1.0    ,380.0         ,2.0       ,6.0        ,1167.0 ,0.0   ,2.0,1175.0     ,3.0          ,3.0        ,350.2857 ,380.0            
236  ,10.0   ,81   ,2.0    ,298.0         ,2.0       ,6.0        ,1167.0 ,0.0   ,1.0,1175.0     ,3.0          ,2.0        ,450.35226,298.0            
237  ,10.0   ,81   ,3.0    ,199.0         ,2.0       ,6.0        ,1167.0 ,0.0   ,2.0,1175.0     ,3.0          ,1.0        ,385.79688,199.0            
238  ,10.0   ,82   ,1.0    ,299.0         ,4.0       ,6.0        ,1123.0 ,0.0   ,2.0,1136.0     ,2.0          ,2.0        ,350.2857 ,299.0            
239  ,10.0   ,82   ,2.0    ,419.0         ,4.0       ,6.0        ,1123.0 ,0.0   ,1.0,1136.0     ,2.0          ,1.0        ,450.35226,419.0            
240  ,10.0   ,83   ,1.0    ,339.0         ,9.0       ,10.0       ,3939.0 ,0.0   ,1.0,3965.0     ,10.0         ,10.0       ,350.2857 ,339.0            
241  ,10.0   ,83   ,2.0    ,458.0         ,9.0       ,10.0       ,3939.0 ,0.0   ,2.0,3965.0     ,10.0         ,9.0        ,450.35226,458.0            
242  ,10.0   ,83   ,3.0    ,577.0         ,9.0       ,10.0       ,3939.0 ,0.0   ,1.0,3965.0     ,10.0         ,8.0        ,385.79688,577.0            
243  ,10.0   ,83   ,4.0    ,300.0         ,9.0       ,10.0       ,3939.0 ,0.0   ,2.0,3965.0     ,10.0         ,7.0        ,486.14285,300.0            
244  ,10.0   ,83   ,5.0    ,597.0         ,9.0       ,10.0       ,3939.0 ,0.0   ,1.0,3965.0     ,10.0         ,6.0        ,573.8571 ,597.0            
245  ,10.0   ,83   ,6.0    ,319.0         ,9.0       ,10.0       ,3939.0 ,0.0   ,2.0,3965.0     ,10.0         ,5.0        ,535.125  ,319.0            
246  ,10.0   ,83   ,7.0    ,220.0         ,9.0       ,10.0       ,3939.0 ,0.0   ,1.0,3965.0     ,10.0         ,4.0        ,647.3333 ,220.0            
247  ,10.0   ,83   ,8.0    ,278.0         ,9.0       ,10.0       ,3939.0 ,0.0   ,2.0,3965.0     ,10.0         ,3.0        ,419.0    ,278.0            
248  ,10.0   ,83   ,9.0    ,260.0         ,9.0       ,10.0       ,3939.0 ,0.0   ,1.0,3965.0     ,10.0         ,2.0        ,497.5    ,260.0            
249  ,10.0   ,83   ,10.0   ,300.0         ,9.0       ,10.0       ,3939.0 ,0.0   ,2.0,3965.0     ,10.0         ,1.0        ,300.0    ,300.0            
250  ,10.0   ,84   ,1.0    ,398.0         ,4.0       ,5.0        ,1220.0 ,0.0   ,1.0,1235.0     ,3.0          ,3.0        ,350.2857 ,398.0            
251  ,10.0   ,84   ,2.0    ,538.0         ,4.0       ,5.0        ,1220.0 ,0.0   ,2.0,1235.0     ,3.0          ,2.0        ,450.35226,538.0            
252  ,10.0   ,84   ,3.0    ,60.0          ,4.0       ,5.0        ,1220.0 ,0.0   ,1.0,1235.0     ,3.0          ,1.0        ,385.79688,60.0             
253  ,10.0   ,85   ,1.0    ,340.0         ,1.0       ,3.0        ,4142.0 ,0.0   ,1.0,4146.0     ,8.0          ,8.0        ,350.2857 ,340.0            
254  ,10.0   ,85   ,2.0    ,418.0         ,1.0       ,3.0        ,4142.0 ,0.0   ,2.0,4146.0     ,8.0          ,7.0        ,450.35226,418.0            
255  ,10.0   ,85   ,3.0    ,817.0         ,1.0       ,3.0        ,4142.0 ,0.0   ,1.0,4146.0     ,8.0          ,6.0        ,385.79688,817.0            
256  ,10.0   ,85   ,4.0    ,380.0         ,1.0       ,3.0        ,4142.0 ,0.0   ,2.0,4146.0     ,8.0          ,5.0        ,486.14285,380.0            
257  ,10.0   ,85   ,5.0    ,756.0         ,1.0       ,3.0        ,4142.0 ,0.0   ,1.0,4146.0     ,8.0          ,4.0        ,573.8571 ,756.0            
258  ,10.0   ,85   ,6.0    ,478.0         ,1.0       ,3.0        ,4142.0 ,0.0   ,2.0,4146.0     ,8.0          ,3.0        ,535.125  ,478.0            
259  ,10.0   ,85   ,7.0    ,279.0         ,1.0       ,3.0        ,4142.0 ,0.0   ,1.0,4146.0     ,8.0          ,2.0        ,647.3333 ,279.0            
260  ,10.0   ,85   ,8.0    ,400.0         ,1.0       ,3.0        ,4142.0 ,0.0   ,2.0,4146.0     ,8.0          ,1.0        ,419.0    ,400.0            
261  ,10.0   ,86   ,1.0    ,378.0         ,4.0       ,3.0        ,1102.0 ,0.0   ,1.0,1117.0     ,2.0          ,2.0        ,350.2857 ,378.0            
262  ,10.0   ,86   ,2.0    ,459.0         ,4.0       ,3.0        ,1102.0 ,0.0   ,2.0,1117.0     ,2.0          ,1.0        ,450.35226,459.0            
263  ,10.0   ,87   ,1.0    ,319.0         ,10.0      ,10.0       ,2291.0 ,1.0   ,1.0,2291.0     ,4.0          ,4.0        ,350.2857 ,319.0            
264  ,10.0   ,87   ,2.0    ,418.0         ,10.0      ,10.0       ,2291.0 ,1.0   ,2.0,2291.0     ,4.0          ,3.0        ,450.35226,418.0            
265  ,10.0   ,87   ,3.0    ,1176.0        ,10.0      ,10.0       ,2291.0 ,1.0   ,1.0,2291.0     ,4.0          ,2.0        ,385.79688,1176.0           
266  ,10.0   ,87   ,4.0    ,120.0         ,10.0      ,10.0       ,2291.0 ,1.0   ,2.0,2291.0     ,4.0          ,1.0        ,486.14285,120.0            
267  ,10.0   ,88   ,1.0    ,299.0         ,2.0       ,6.0        ,745.0  ,0.0   ,1.0,758.0      ,2.0          ,2.0        ,350.2857 ,299.0            
268  ,10.0   ,88   ,2.0    ,240.0         ,2.0       ,6.0        ,745.0  ,0.0   ,2.0,758.0      ,2.0          ,1.0        ,450.35226,240.0            
269  ,10.0   ,89   ,1.0    ,379.0         ,2.0       ,2.0        ,1713.0 ,0.0   ,1.0,1702.0     ,4.0          ,4.0        ,350.2857 ,379.0            
270  ,10.0   ,89   ,2.0    ,358.0         ,2.0       ,2.0        ,1713.0 ,0.0   ,2.0,1702.0     ,4.0          ,3.0        ,450.35226,358.0            
271  ,10.0   ,89   ,3.0    ,418.0         ,2.0       ,2.0        ,1713.0 ,0.0   ,1.0,1702.0     ,4.0          ,2.0        ,385.79688,418.0            
272  ,10.0   ,89   ,4.0    ,120.0         ,2.0       ,2.0        ,1713.0 ,0.0   ,2.0,1702.0     ,4.0          ,1.0        ,486.14285,120.0            
273  ,10.0   ,90   ,1.0    ,237.0         ,3.0       ,6.0        ,974.0  ,0.0   ,1.0,996.0      ,3.0          ,3.0        ,350.2857 ,237.0            
274  ,10.0   ,90   ,2.0    ,418.0         ,3.0       ,6.0        ,974.0  ,0.0   ,2.0,996.0      ,3.0          ,2.0        ,450.35226,418.0            
275  ,10.0   ,90   ,3.0    ,81.0          ,3.0       ,6.0        ,974.0  ,0.0   ,1.0,996.0      ,3.0          ,1.0        ,385.79688,81.0             
276  ,10.0   ,91   ,1.0    ,359.0         ,5.0       ,4.0        ,2256.0 ,0.0   ,1.0,2271.0     ,4.0          ,4.0        ,350.2857 ,359.0            
277  ,10.0   ,91   ,2.0    ,737.0         ,5.0       ,4.0        ,2256.0 ,0.0   ,2.0,2271.0     ,4.0          ,3.0        ,450.35226,737.0            
278  ,10.0   ,91   ,3.0    ,837.0         ,5.0       ,4.0        ,2256.0 ,0.0   ,1.0,2271.0     ,4.0          ,2.0        ,385.79688,837.0            
279  ,10.0   ,91   ,4.0    ,99.0          ,5.0       ,4.0        ,2256.0 ,0.0   ,2.0,2271.0     ,4.0          ,1.0        ,486.14285,99.0             
280  ,10.0   ,92   ,1.0    ,339.0         ,6.0       ,3.0        ,834.0  ,1.0   ,1.0,851.0      ,2.0          ,2.0        ,350.2857 ,339.0            
281  ,10.0   ,92   ,2.0    ,319.0         ,6.0       ,3.0        ,834.0  ,1.0   ,2.0,851.0      ,2.0          ,1.0        ,450.35226,319.0            
282  ,10.0   ,93   ,1.0    ,219.0         ,2.0       ,4.0        ,1771.0 ,1.0   ,1.0,1773.0     ,4.0          ,4.0        ,350.2857 ,219.0            
283  ,10.0   ,93   ,2.0    ,343.0         ,2.0       ,4.0        ,1771.0 ,1.0   ,2.0,1773.0     ,4.0          ,3.0        ,450.35226,343.0            
284  ,10.0   ,93   ,3.0    ,521.0         ,2.0       ,4.0        ,1771.0 ,1.0   ,1.0,1773.0     ,4.0          ,2.0        ,385.79688,521.0            
285  ,10.0   ,93   ,4.0    ,439.0         ,2.0       ,4.0        ,1771.0 ,1.0   ,2.0,1773.0     ,4.0          ,1.0        ,486.14285,439.0            
286  ,10.0   ,94   ,1.0    ,240.0         ,4.0       ,4.0        ,864.0  ,0.0   ,1.0,877.0      ,3.0          ,3.0        ,350.2857 ,240.0            
287  ,10.0   ,94   ,2.0    ,239.0         ,4.0       ,4.0        ,864.0  ,0.0   ,2.0,877.0      ,3.0          ,2.0        ,450.35226,239.0            
288  ,10.0   ,94   ,3.0    ,161.0         ,4.0       ,4.0        ,864.0  ,0.0   ,1.0,877.0      ,3.0          ,1.0        ,385.79688,161.0            
289  ,10.0   ,95   ,1.0    ,179.0         ,4.0       ,1.0        ,804.0  ,1.0   ,1.0,817.0      ,3.0          ,3.0        ,350.2857 ,179.0            
290  ,10.0   ,95   ,2.0    ,219.0         ,4.0       ,1.0        ,804.0  ,1.0   ,2.0,817.0      ,3.0          ,2.0        ,450.35226,219.0            
291  ,10.0   ,95   ,3.0    ,160.0         ,4.0       ,1.0        ,804.0  ,1.0   ,1.0,817.0      ,3.0          ,1.0        ,385.79688,160.0            
292  ,10.0   ,96   ,1.0    ,239.0         ,5.0       ,5.0        ,2060.0 ,0.0   ,1.0,2071.0     ,2.0          ,2.0        ,350.2857 ,239.0            
293  ,10.0   ,96   ,2.0    ,1594.0        ,5.0       ,5.0        ,2060.0 ,0.0   ,2.0,2071.0     ,2.0          ,1.0        ,450.35226,1594.0           
294  ,10.0   ,97   ,1.0    ,156.0         ,1.0       ,5.0        ,1042.0 ,0.0   ,2.0,913.0      ,3.0          ,3.0        ,350.2857 ,156.0            
295  ,10.0   ,97   ,2.0    ,458.0         ,1.0       ,5.0        ,1042.0 ,0.0   ,1.0,913.0      ,3.0          ,2.0        ,450.35226,458.0            
296  ,10.0   ,97   ,3.0    ,60.0          ,1.0       ,5.0        ,1042.0 ,0.0   ,2.0,913.0      ,3.0          ,1.0        ,385.79688,60.0             
297  ,10.0   ,98   ,1.0    ,160.0         ,8.0       ,10.0       ,844.0  ,0.0   ,1.0,856.0      ,3.0          ,3.0        ,350.2857 ,160.0            
298  ,10.0   ,98   ,2.0    ,359.0         ,8.0       ,10.0       ,844.0  ,0.0   ,2.0,856.0      ,3.0          ,2.0        ,450.35226,359.0            
299  ,10.0   ,98   ,3.0    ,20.0          ,8.0       ,10.0       ,844.0  ,0.0   ,1.0,856.0      ,3.0          ,1.0        ,385.79688,20.0             
300  ,10.0   ,99   ,1.0    ,179.0         ,4.0       ,3.0        ,898.0  ,0.0   ,1.0,917.0      ,3.0          ,3.0        ,350.2857 ,179.0            
301  ,10.0   ,99   ,2.0    ,378.0         ,4.0       ,3.0        ,898.0  ,0.0   ,2.0,917.0      ,3.0          ,2.0        ,450.35226,378.0            
302  ,10.0   ,99   ,3.0    ,81.0          ,4.0       ,3.0        ,898.0  ,0.0   ,1.0,917.0      ,3.0          ,1.0        ,385.79688,81.0             
303  ,10.0   ,100  ,1.0    ,258.0         ,2.0       ,2.0        ,964.0  ,1.0   ,1.0,976.0      ,3.0          ,3.0        ,350.2857 ,258.0            
304  ,10.0   ,100  ,2.0    ,438.0         ,2.0       ,2.0        ,964.0  ,1.0   ,2.0,976.0      ,3.0          ,2.0        ,450.35226,438.0            
305  ,10.0   ,100  ,3.0    ,20.0          ,2.0       ,2.0        ,964.0  ,1.0   ,1.0,976.0      ,3.0          ,1.0        ,385.79688,20.0             
306  ,11.0   ,1    ,1.0    ,338.0         ,5.0       ,2.0        ,1672.0 ,1.0   ,1.0,1696.0     ,4.0          ,4.0        ,362.80807,338.0            
307  ,11.0   ,1    ,2.0    ,440.0         ,5.0       ,2.0        ,1672.0 ,1.0   ,2.0,1696.0     ,4.0          ,3.0        ,555.7551 ,440.0            
308  ,11.0   ,1    ,3.0    ,319.0         ,5.0       ,2.0        ,1672.0 ,1.0   ,1.0,1696.0     ,4.0          ,2.0        ,484.6154 ,319.0            
309  ,11.0   ,1    ,4.0    ,380.0         ,5.0       ,2.0        ,1672.0 ,1.0   ,2.0,1696.0     ,4.0          ,1.0        ,625.5417 ,380.0            
310  ,11.0   ,2    ,1.0    ,242.0         ,9.0       ,8.0        ,1748.0 ,1.0   ,2.0,1754.0     ,4.0          ,4.0        ,362.80807,242.0            
311  ,11.0   ,2    ,2.0    ,339.0         ,9.0       ,8.0        ,1748.0 ,1.0   ,1.0,1754.0     ,4.0          ,3.0        ,555.7551 ,339.0            
312  ,11.0   ,2    ,3.0    ,522.0         ,9.0       ,8.0        ,1748.0 ,1.0   ,2.0,1754.0     ,4.0          ,2.0        ,484.6154 ,522.0            
313  ,11.0   ,2    ,4.0    ,159.0         ,9.0       ,8.0        ,1748.0 ,1.0   ,1.0,1754.0     ,4.0          ,1.0        ,625.5417 ,159.0            
314  ,11.0   ,3    ,1.0    ,476.0         ,7.0       ,10.0       ,2104.0 ,0.0   ,1.0,2113.0     ,2.0          ,2.0        ,362.80807,476.0            
315  ,11.0   ,3    ,2.0    ,1373.0        ,7.0       ,10.0       ,2104.0 ,0.0   ,2.0,2113.0     ,2.0          ,1.0        ,555.7551 ,1373.0           
316  ,11.0   ,4    ,1.0    ,225.0         ,8.0       ,2.0        ,4422.0 ,1.0   ,1.0,4441.0     ,7.0          ,7.0        ,362.80807,225.0            
317  ,11.0   ,4    ,2.0    ,881.0         ,8.0       ,2.0        ,4422.0 ,1.0   ,2.0,4441.0     ,7.0          ,6.0        ,555.7551 ,881.0            
318  ,11.0   ,4    ,3.0    ,135.0         ,8.0       ,2.0        ,4422.0 ,1.0   ,1.0,4441.0     ,7.0          ,5.0        ,484.6154 ,135.0            
319  ,11.0   ,4    ,4.0    ,239.0         ,8.0       ,2.0        ,4422.0 ,1.0   ,2.0,4441.0     ,7.0          ,4.0        ,625.5417 ,239.0            
320  ,11.0   ,4    ,5.0    ,962.0         ,8.0       ,2.0        ,4422.0 ,1.0   ,1.0,4441.0     ,7.0          ,3.0        ,346.27274,962.0            
321  ,11.0   ,4    ,6.0    ,1462.0        ,8.0       ,2.0        ,4422.0 ,1.0   ,2.0,4441.0     ,7.0          ,2.0        ,529.6    ,1462.0           
322  ,11.0   ,4    ,7.0    ,230.0         ,8.0       ,2.0        ,4422.0 ,1.0   ,1.0,4441.0     ,7.0          ,1.0        ,269.0    ,230.0            
323  ,11.0   ,5    ,1.0    ,696.0         ,0.0       ,5.0        ,2940.0 ,1.0   ,1.0,2950.0     ,5.0          ,5.0        ,362.80807,696.0            
324  ,11.0   ,5    ,2.0    ,998.0         ,0.0       ,5.0        ,2940.0 ,1.0   ,2.0,2950.0     ,5.0          ,4.0        ,555.7551 ,998.0            
325  ,11.0   ,5    ,3.0    ,137.0         ,0.0       ,5.0        ,2940.0 ,1.0   ,1.0,2950.0     ,5.0          ,3.0        ,484.6154 ,137.0            
326  ,11.0   ,5    ,4.0    ,625.0         ,0.0       ,5.0        ,2940.0 ,1.0   ,2.0,2950.0     ,5.0          ,2.0        ,625.5417 ,625.0            
327  ,11.0   ,5    ,5.0    ,212.0         ,0.0       ,5.0        ,2940.0 ,1.0   ,1.0,2950.0     ,5.0          ,1.0        ,346.27274,212.0            
328  ,11.0   ,6    ,1.0    ,460.0         ,8.0       ,8.0        ,4395.0 ,1.0   ,2.0,4405.0     ,6.0          ,6.0        ,362.80807,460.0            
329  ,11.0   ,6    ,2.0    ,618.0         ,8.0       ,8.0        ,4395.0 ,1.0   ,1.0,4405.0     ,6.0          ,5.0        ,555.7551 ,618.0            
330  ,11.0   ,6    ,3.0    ,1057.0        ,8.0       ,8.0        ,4395.0 ,1.0   ,2.0,4405.0     ,6.0          ,4.0        ,484.6154 ,1057.0           
331  ,11.0   ,6    ,4.0    ,1307.0        ,8.0       ,8.0        ,4395.0 ,1.0   ,1.0,4405.0     ,6.0          ,3.0        ,625.5417 ,1307.0           
332  ,11.0   ,6    ,5.0    ,444.0         ,8.0       ,8.0        ,4395.0 ,1.0   ,2.0,4405.0     ,6.0          ,2.0        ,346.27274,444.0            
333  ,11.0   ,6    ,6.0    ,20.0          ,8.0       ,8.0        ,4395.0 ,1.0   ,1.0,4405.0     ,6.0          ,1.0        ,529.6    ,20.0             
334  ,11.0   ,7    ,1.0    ,511.0         ,9.0       ,3.0        ,2623.0 ,1.0   ,1.0,2631.0     ,5.0          ,5.0        ,362.80807,511.0            
335  ,11.0   ,7    ,2.0    ,700.0         ,9.0       ,3.0        ,2623.0 ,1.0   ,2.0,2631.0     ,5.0          ,4.0        ,555.7551 ,700.0            
336  ,11.0   ,7    ,3.0    ,455.0         ,9.0       ,3.0        ,2623.0 ,1.0   ,1.0,2631.0     ,5.0          ,3.0        ,484.6154 ,455.0            
337  ,11.0   ,7    ,4.0    ,442.0         ,9.0       ,3.0        ,2623.0 ,1.0   ,2.0,2631.0     ,5.0          ,2.0        ,625.5417 ,442.0            
338  ,11.0   ,7    ,5.0    ,77.0          ,9.0       ,3.0        ,2623.0 ,1.0   ,1.0,2631.0     ,5.0          ,1.0        ,346.27274,77.0             
339  ,11.0   ,8    ,1.0    ,535.0         ,2.0       ,7.0        ,1770.0 ,0.0   ,1.0,1773.0     ,2.0          ,2.0        ,362.80807,535.0            
340  ,11.0   ,8    ,2.0    ,940.0         ,2.0       ,7.0        ,1770.0 ,0.0   ,2.0,1773.0     ,2.0          ,1.0        ,555.7551 ,940.0            
341  ,11.0   ,9    ,1.0    ,515.0         ,7.0       ,5.0        ,3117.0 ,1.0   ,1.0,3129.0     ,5.0          ,5.0        ,362.80807,515.0            
342  ,11.0   ,9    ,2.0    ,553.0         ,7.0       ,5.0        ,3117.0 ,1.0   ,2.0,3129.0     ,5.0          ,4.0        ,555.7551 ,553.0            
343  ,11.0   ,9    ,3.0    ,1551.0        ,7.0       ,5.0        ,3117.0 ,1.0   ,1.0,3129.0     ,5.0          ,3.0        ,484.6154 ,1551.0           
344  ,11.0   ,9    ,4.0    ,163.0         ,7.0       ,5.0        ,3117.0 ,1.0   ,2.0,3129.0     ,5.0          ,2.0        ,625.5417 ,163.0            
345  ,11.0   ,9    ,5.0    ,60.0          ,7.0       ,5.0        ,3117.0 ,1.0   ,1.0,3129.0     ,5.0          ,1.0        ,346.27274,60.0             
346  ,11.0   ,10   ,1.0    ,159.0         ,10.0      ,7.0        ,1291.0 ,1.0   ,2.0,1295.0     ,2.0          ,2.0        ,362.80807,159.0            
347  ,11.0   ,10   ,2.0    ,878.0         ,10.0      ,7.0        ,1291.0 ,1.0   ,1.0,1295.0     ,2.0          ,1.0        ,555.7551 ,878.0            
348  ,11.0   ,11   ,1.0    ,282.0         ,2.0       ,2.0        ,1846.0 ,0.0   ,2.0,1870.0     ,3.0          ,3.0        ,362.80807,282.0            
349  ,11.0   ,11   ,2.0    ,649.0         ,2.0       ,2.0        ,1846.0 ,0.0   ,1.0,1870.0     ,3.0          ,2.0        ,555.7551 ,649.0            
350  ,11.0   ,11   ,3.0    ,660.0         ,2.0       ,2.0        ,1846.0 ,0.0   ,2.0,1870.0     ,3.0          ,1.0        ,484.6154 ,660.0            
351  ,11.0   ,12   ,1.0    ,219.0         ,2.0       ,7.0        ,1844.0 ,1.0   ,1.0,1853.0     ,3.0          ,3.0        ,362.80807,219.0            
352  ,11.0   ,12   ,2.0    ,283.0         ,2.0       ,7.0        ,1844.0 ,1.0   ,2.0,1853.0     ,3.0          ,2.0        ,555.7551 ,283.0            
353  ,11.0   ,12   ,3.0    ,1035.0        ,2.0       ,7.0        ,1844.0 ,1.0   ,1.0,1853.0     ,3.0          ,1.0        ,484.6154 ,1035.0           
354  ,11.0   ,13   ,1.0    ,579.0         ,8.0       ,9.0        ,1692.0 ,0.0   ,1.0,1711.0     ,2.0          ,2.0        ,362.80807,579.0            
355  ,11.0   ,13   ,2.0    ,875.0         ,8.0       ,9.0        ,1692.0 ,0.0   ,2.0,1711.0     ,2.0          ,1.0        ,555.7551 ,875.0            
356  ,11.0   ,14   ,1.0    ,358.0         ,4.0       ,9.0        ,2767.0 ,0.0   ,1.0,2767.0     ,4.0          ,4.0        ,362.80807,358.0            
357  ,11.0   ,14   ,2.0    ,837.0         ,4.0       ,9.0        ,2767.0 ,0.0   ,2.0,2767.0     ,4.0          ,3.0        ,555.7551 ,837.0            
358  ,11.0   ,14   ,3.0    ,840.0         ,4.0       ,9.0        ,2767.0 ,0.0   ,1.0,2767.0     ,4.0          ,2.0        ,484.6154 ,840.0            
359  ,11.0   ,14   ,4.0    ,476.0         ,4.0       ,9.0        ,2767.0 ,0.0   ,2.0,2767.0     ,4.0          ,1.0        ,625.5417 ,476.0            
360  ,11.0   ,15   ,1.0    ,218.0         ,2.0       ,7.0        ,1758.0 ,0.0   ,1.0,1773.0     ,4.0          ,4.0        ,362.80807,218.0            
361  ,11.0   ,15   ,2.0    ,521.0         ,2.0       ,7.0        ,1758.0 ,0.0   ,2.0,1773.0     ,4.0          ,3.0        ,555.7551 ,521.0            
362  ,11.0   ,15   ,3.0    ,401.0         ,2.0       ,7.0        ,1758.0 ,0.0   ,1.0,1773.0     ,4.0          ,2.0        ,484.6154 ,401.0            
363  ,11.0   ,15   ,4.0    ,353.0         ,2.0       ,7.0        ,1758.0 ,0.0   ,2.0,1773.0     ,4.0          ,1.0        ,625.5417 ,353.0            
364  ,11.0   ,16   ,1.0    ,321.0         ,1.0       ,2.0        ,1847.0 ,1.0   ,1.0,1873.0     ,3.0          ,3.0        ,362.80807,321.0            
365  ,11.0   ,16   ,2.0    ,615.0         ,1.0       ,2.0        ,1847.0 ,1.0   ,2.0,1873.0     ,3.0          ,2.0        ,555.7551 ,615.0            
366  ,11.0   ,16   ,3.0    ,699.0         ,1.0       ,2.0        ,1847.0 ,1.0   ,1.0,1873.0     ,3.0          ,1.0        ,484.6154 ,699.0            
367  ,11.0   ,17   ,1.0    ,499.0         ,10.0      ,3.0        ,1106.0 ,1.0   ,1.0,1116.0     ,2.0          ,2.0        ,362.80807,499.0            
368  ,11.0   ,17   ,2.0    ,398.0         ,10.0      ,3.0        ,1106.0 ,1.0   ,2.0,1116.0     ,2.0          ,1.0        ,555.7551 ,398.0            
369  ,11.0   ,18   ,1.0    ,714.0         ,8.0       ,10.0       ,1128.0 ,1.0   ,1.0,1135.0     ,2.0          ,2.0        ,362.80807,714.0            
370  ,11.0   ,18   ,2.0    ,202.0         ,8.0       ,10.0       ,1128.0 ,1.0   ,2.0,1135.0     ,2.0          ,1.0        ,555.7551 ,202.0            
371  ,11.0   ,19   ,1.0    ,943.0         ,9.0       ,3.0        ,2655.0 ,0.0   ,1.0,2668.0     ,2.0          ,2.0        ,362.80807,943.0            
372  ,11.0   ,19   ,2.0    ,1508.0        ,9.0       ,3.0        ,2655.0 ,0.0   ,2.0,2668.0     ,2.0          ,1.0        ,555.7551 ,1508.0           
373  ,11.0   ,20   ,1.0    ,366.0         ,2.0       ,8.0        ,1937.0 ,0.0   ,1.0,1954.0     ,3.0          ,3.0        ,362.80807,366.0            
374  ,11.0   ,20   ,2.0    ,856.0         ,2.0       ,8.0        ,1937.0 ,0.0   ,2.0,1954.0     ,3.0          ,2.0        ,555.7551 ,856.0            
375  ,11.0   ,20   ,3.0    ,479.0         ,2.0       ,8.0        ,1937.0 ,0.0   ,1.0,1954.0     ,3.0          ,1.0        ,484.6154 ,479.0            
376  ,11.0   ,21   ,1.0    ,420.0         ,8.0       ,10.0       ,995.0  ,1.0   ,1.0,997.0      ,2.0          ,2.0        ,362.80807,420.0            
377  ,11.0   ,21   ,2.0    ,377.0         ,8.0       ,10.0       ,995.0  ,1.0   ,2.0,997.0      ,2.0          ,1.0        ,555.7551 ,377.0            
378  ,11.0   ,22   ,1.0    ,396.0         ,8.0       ,10.0       ,1443.0 ,1.0   ,1.0,1458.0     ,3.0          ,3.0        ,362.80807,396.0            
379  ,11.0   ,22   ,2.0    ,746.0         ,8.0       ,10.0       ,1443.0 ,1.0   ,2.0,1458.0     ,3.0          ,2.0        ,555.7551 ,746.0            
380  ,11.0   ,22   ,3.0    ,39.0          ,8.0       ,10.0       ,1443.0 ,1.0   ,1.0,1458.0     ,3.0          ,1.0        ,484.6154 ,39.0             
381  ,11.0   ,23   ,1.0    ,285.0         ,8.0       ,1.0        ,1489.0 ,1.0   ,1.0,1495.0     ,3.0          ,3.0        ,362.80807,285.0            
382  ,11.0   ,23   ,2.0    ,752.0         ,8.0       ,1.0        ,1489.0 ,1.0   ,2.0,1495.0     ,3.0          ,2.0        ,555.7551 ,752.0            
383  ,11.0   ,23   ,3.0    ,239.0         ,8.0       ,1.0        ,1489.0 ,1.0   ,1.0,1495.0     ,3.0          ,1.0        ,484.6154 ,239.0            
384  ,11.0   ,24   ,1.0    ,302.0         ,2.0       ,9.0        ,1190.0 ,0.0   ,1.0,1196.0     ,2.0          ,2.0        ,362.80807,302.0            
385  ,11.0   ,24   ,2.0    ,654.0         ,2.0       ,9.0        ,1190.0 ,0.0   ,2.0,1196.0     ,2.0          ,1.0        ,555.7551 ,654.0            
386  ,11.0   ,25   ,1.0    ,260.0         ,3.0       ,1.0        ,1292.0 ,1.0   ,1.0,1294.0     ,3.0          ,3.0        ,362.80807,260.0            
387  ,11.0   ,25   ,2.0    ,398.0         ,3.0       ,1.0        ,1292.0 ,1.0   ,2.0,1294.0     ,3.0          ,2.0        ,555.7551 ,398.0            
388  ,11.0   ,25   ,3.0    ,139.0         ,3.0       ,1.0        ,1292.0 ,1.0   ,1.0,1294.0     ,3.0          ,1.0        ,484.6154 ,139.0            
389  ,11.0   ,26   ,1.0    ,474.0         ,8.0       ,10.0       ,1428.0 ,0.0   ,1.0,1435.0     ,3.0          ,3.0        ,362.80807,474.0            
390  ,11.0   ,26   ,2.0    ,702.0         ,8.0       ,10.0       ,1428.0 ,0.0   ,2.0,1435.0     ,3.0          ,2.0        ,555.7551 ,702.0            
391  ,11.0   ,26   ,3.0    ,20.0          ,8.0       ,10.0       ,1428.0 ,0.0   ,1.0,1435.0     ,3.0          ,1.0        ,484.6154 ,20.0             
392  ,11.0   ,27   ,1.0    ,302.0         ,10.0      ,7.0        ,1898.0 ,1.0   ,1.0,1914.0     ,3.0          ,3.0        ,362.80807,302.0            
393  ,11.0   ,27   ,2.0    ,514.0         ,10.0      ,7.0        ,1898.0 ,1.0   ,2.0,1914.0     ,3.0          ,2.0        ,555.7551 ,514.0            
394  ,11.0   ,27   ,3.0    ,877.0         ,10.0      ,7.0        ,1898.0 ,1.0   ,1.0,1914.0     ,3.0          ,1.0        ,484.6154 ,877.0            
395  ,11.0   ,28   ,1.0    ,559.0         ,2.0       ,0.0        ,1511.0 ,1.0   ,1.0,1534.0     ,2.0          ,2.0        ,362.80807,559.0            
396  ,11.0   ,28   ,2.0    ,778.0         ,2.0       ,0.0        ,1511.0 ,1.0   ,2.0,1534.0     ,2.0          ,1.0        ,555.7551 ,778.0            
397  ,11.0   ,29   ,1.0    ,304.0         ,8.0       ,1.0        ,4826.0 ,0.0   ,1.0,4843.0     ,6.0          ,6.0        ,362.80807,304.0            
398  ,11.0   ,29   ,2.0    ,608.0         ,8.0       ,1.0        ,4826.0 ,0.0   ,2.0,4843.0     ,6.0          ,5.0        ,555.7551 ,608.0            
399  ,11.0   ,29   ,3.0    ,2210.0        ,8.0       ,1.0        ,4826.0 ,0.0   ,1.0,4843.0     ,6.0          ,4.0        ,484.6154 ,2210.0           
400  ,11.0   ,29   ,4.0    ,1016.0        ,8.0       ,1.0        ,4826.0 ,0.0   ,2.0,4843.0     ,6.0          ,3.0        ,625.5417 ,1016.0           
401  ,11.0   ,29   ,5.0    ,263.0         ,8.0       ,1.0        ,4826.0 ,0.0   ,1.0,4843.0     ,6.0          ,2.0        ,346.27274,263.0            
402  ,11.0   ,29   ,6.0    ,196.0         ,8.0       ,1.0        ,4826.0 ,0.0   ,2.0,4843.0     ,6.0          ,1.0        ,529.6    ,196.0            
403  ,11.0   ,30   ,1.0    ,397.0         ,10.0      ,10.0       ,2185.0 ,0.0   ,1.0,2191.0     ,3.0          ,3.0        ,362.80807,397.0            
404  ,11.0   ,30   ,2.0    ,1100.0        ,10.0      ,10.0       ,2185.0 ,0.0   ,2.0,2191.0     ,3.0          ,2.0        ,555.7551 ,1100.0           
405  ,11.0   ,30   ,3.0    ,438.0         ,10.0      ,10.0       ,2185.0 ,0.0   ,1.0,2191.0     ,3.0          ,1.0        ,484.6154 ,438.0            
406  ,11.0   ,31   ,1.0    ,235.0         ,10.0      ,10.0       ,1453.0 ,0.0   ,1.0,1472.0     ,3.0          ,3.0        ,362.80807,235.0            
407  ,11.0   ,31   ,2.0    ,760.0         ,10.0      ,10.0       ,1453.0 ,0.0   ,2.0,1472.0     ,3.0          ,2.0        ,555.7551 ,760.0            
408  ,11.0   ,31   ,3.0    ,259.0         ,10.0      ,10.0       ,1453.0 ,0.0   ,1.0,1472.0     ,3.0          ,1.0        ,484.6154 ,259.0            
409  ,11.0   ,32   ,1.0    ,239.0         ,1.0       ,3.0        ,2734.0 ,0.0   ,2.0,2752.0     ,5.0          ,5.0        ,362.80807,239.0            
410  ,11.0   ,32   ,2.0    ,699.0         ,1.0       ,3.0        ,2734.0 ,0.0   ,1.0,2752.0     ,5.0          ,4.0        ,555.7551 ,699.0            
411  ,11.0   ,32   ,3.0    ,617.0         ,1.0       ,3.0        ,2734.0 ,0.0   ,2.0,2752.0     ,5.0          ,3.0        ,484.6154 ,617.0            
412  ,11.0   ,32   ,4.0    ,697.0         ,1.0       ,3.0        ,2734.0 ,0.0   ,1.0,2752.0     ,5.0          ,2.0        ,625.5417 ,697.0            
413  ,11.0   ,32   ,5.0    ,122.0         ,1.0       ,3.0        ,2734.0 ,0.0   ,2.0,2752.0     ,5.0          ,1.0        ,346.27274,122.0            
414  ,11.0   ,33   ,1.0    ,259.0         ,8.0       ,10.0       ,1087.0 ,0.0   ,2.0,1094.0     ,2.0          ,2.0        ,362.80807,259.0            
415  ,11.0   ,33   ,2.0    ,459.0         ,8.0       ,10.0       ,1087.0 ,0.0   ,1.0,1094.0     ,2.0          ,1.0        ,555.7551 ,459.0            
416  ,11.0   ,34   ,1.0    ,998.0         ,8.0       ,5.0        ,2593.0 ,0.0   ,2.0,2610.0     ,3.0          ,3.0        ,362.80807,998.0            
417  ,11.0   ,34   ,2.0    ,462.0         ,8.0       ,5.0        ,2593.0 ,0.0   ,1.0,2610.0     ,3.0          ,2.0        ,555.7551 ,462.0            
418  ,11.0   ,34   ,3.0    ,893.0         ,8.0       ,5.0        ,2593.0 ,0.0   ,2.0,2610.0     ,3.0          ,1.0        ,484.6154 ,893.0            
419  ,11.0   ,35   ,1.0    ,241.0         ,2.0       ,8.0        ,4380.0 ,0.0   ,1.0,4385.0     ,5.0          ,5.0        ,362.80807,241.0            
420  ,11.0   ,35   ,2.0    ,795.0         ,2.0       ,8.0        ,4380.0 ,0.0   ,2.0,4385.0     ,5.0          ,4.0        ,555.7551 ,795.0            
421  ,11.0   ,35   ,3.0    ,640.0         ,2.0       ,8.0        ,4380.0 ,0.0   ,1.0,4385.0     ,5.0          ,3.0        ,484.6154 ,640.0            
422  ,11.0   ,35   ,4.0    ,1653.0        ,2.0       ,8.0        ,4380.0 ,0.0   ,2.0,4385.0     ,5.0          ,2.0        ,625.5417 ,1653.0           
423  ,11.0   ,35   ,5.0    ,658.0         ,2.0       ,8.0        ,4380.0 ,0.0   ,1.0,4385.0     ,5.0          ,1.0        ,346.27274,658.0            
424  ,11.0   ,36   ,1.0    ,600.0         ,9.0       ,5.0        ,1338.0 ,1.0   ,1.0,1358.0     ,2.0          ,2.0        ,362.80807,600.0            
425  ,11.0   ,36   ,2.0    ,558.0         ,9.0       ,5.0        ,1338.0 ,1.0   ,2.0,1358.0     ,2.0          ,1.0        ,555.7551 ,558.0            
426  ,11.0   ,37   ,1.0    ,496.0         ,5.0       ,9.0        ,1472.0 ,0.0   ,1.0,1474.0     ,2.0          ,2.0        ,362.80807,496.0            
427  ,11.0   ,37   ,2.0    ,718.0         ,5.0       ,9.0        ,1472.0 ,0.0   ,2.0,1474.0     ,2.0          ,1.0        ,555.7551 ,718.0            
428  ,11.0   ,38   ,1.0    ,286.0         ,0.0       ,7.0        ,4602.0 ,1.0   ,2.0,4618.0     ,4.0          ,4.0        ,362.80807,286.0            
429  ,11.0   ,38   ,2.0    ,598.0         ,0.0       ,7.0        ,4602.0 ,1.0   ,1.0,4618.0     ,4.0          ,3.0        ,555.7551 ,598.0            
430  ,11.0   ,38   ,3.0    ,606.0         ,0.0       ,7.0        ,4602.0 ,1.0   ,2.0,4618.0     ,4.0          ,2.0        ,484.6154 ,606.0            
431  ,11.0   ,38   ,4.0    ,2629.0        ,0.0       ,7.0        ,4602.0 ,1.0   ,1.0,4618.0     ,4.0          ,1.0        ,625.5417 ,2629.0           
432  ,11.0   ,39   ,1.0    ,359.0         ,8.0       ,9.0        ,1431.0 ,0.0   ,1.0,1435.0     ,4.0          ,4.0        ,362.80807,359.0            
433  ,11.0   ,39   ,2.0    ,359.0         ,8.0       ,9.0        ,1431.0 ,0.0   ,2.0,1435.0     ,4.0          ,3.0        ,555.7551 ,359.0            
434  ,11.0   ,39   ,3.0    ,362.0         ,8.0       ,9.0        ,1431.0 ,0.0   ,1.0,1435.0     ,4.0          ,2.0        ,484.6154 ,362.0            
435  ,11.0   ,39   ,4.0    ,80.0          ,8.0       ,9.0        ,1431.0 ,0.0   ,2.0,1435.0     ,4.0          ,1.0        ,625.5417 ,80.0             
436  ,11.0   ,40   ,1.0    ,338.0         ,8.0       ,8.0        ,2185.0 ,1.0   ,2.0,2211.0     ,6.0          ,6.0        ,362.80807,338.0            
437  ,11.0   ,40   ,2.0    ,77.0          ,8.0       ,8.0        ,2185.0 ,1.0   ,1.0,2211.0     ,6.0          ,5.0        ,555.7551 ,77.0             
438  ,11.0   ,40   ,3.0    ,22.0          ,8.0       ,8.0        ,2185.0 ,1.0   ,2.0,2211.0     ,6.0          ,4.0        ,484.6154 ,22.0             
439  ,11.0   ,40   ,4.0    ,379.0         ,8.0       ,8.0        ,2185.0 ,1.0   ,1.0,2211.0     ,6.0          ,3.0        ,625.5417 ,379.0            
440  ,11.0   ,40   ,5.0    ,717.0         ,8.0       ,8.0        ,2185.0 ,1.0   ,2.0,2211.0     ,6.0          ,2.0        ,346.27274,717.0            
441  ,11.0   ,40   ,6.0    ,421.0         ,8.0       ,8.0        ,2185.0 ,1.0   ,1.0,2211.0     ,6.0          ,1.0        ,529.6    ,421.0            
442  ,11.0   ,41   ,1.0    ,221.0         ,5.0       ,8.0        ,1361.0 ,1.0   ,2.0,1377.0     ,2.0          ,2.0        ,362.80807,221.0            
443  ,11.0   ,41   ,2.0    ,751.0         ,5.0       ,8.0        ,1361.0 ,1.0   ,1.0,1377.0     ,2.0          ,1.0        ,555.7551 ,751.0            
444  ,11.0   ,42   ,1.0    ,301.0         ,4.0       ,8.0        ,1603.0 ,0.0   ,1.0,1614.0     ,2.0          ,2.0        ,362.80807,301.0            
445  ,11.0   ,42   ,2.0    ,1036.0        ,4.0       ,8.0        ,1603.0 ,0.0   ,2.0,1614.0     ,2.0          ,1.0        ,555.7551 ,1036.0           
446  ,11.0   ,43   ,1.0    ,719.0         ,9.0       ,7.0        ,945.0  ,1.0   ,1.0,958.0      ,1.0          ,1.0        ,362.80807,719.0            
447  ,11.0   ,44   ,1.0    ,717.0         ,5.0       ,8.0        ,1031.0 ,1.0   ,1.0,1036.0     ,2.0          ,2.0        ,362.80807,717.0            
448  ,11.0   ,44   ,2.0    ,120.0         ,5.0       ,8.0        ,1031.0 ,1.0   ,2.0,1036.0     ,2.0          ,1.0        ,555.7551 ,120.0            
449  ,11.0   ,45   ,1.0    ,700.0         ,1.0       ,5.0        ,1772.0 ,0.0   ,2.0,1773.0     ,3.0          ,3.0        ,362.80807,700.0            
450  ,11.0   ,45   ,2.0    ,283.0         ,1.0       ,5.0        ,1772.0 ,0.0   ,1.0,1773.0     ,3.0          ,2.0        ,555.7551 ,283.0            
451  ,11.0   ,45   ,3.0    ,538.0         ,1.0       ,5.0        ,1772.0 ,0.0   ,2.0,1773.0     ,3.0          ,1.0        ,484.6154 ,538.0            
452  ,11.0   ,46   ,1.0    ,757.0         ,4.0       ,10.0       ,1327.0 ,1.0   ,1.0,1352.0     ,2.0          ,2.0        ,362.80807,757.0            
453  ,11.0   ,46   ,2.0    ,359.0         ,4.0       ,10.0       ,1327.0 ,1.0   ,2.0,1352.0     ,2.0          ,1.0        ,555.7551 ,359.0            
454  ,11.0   ,47   ,1.0    ,237.0         ,3.0       ,5.0        ,2003.0 ,0.0   ,1.0,2011.0     ,4.0          ,4.0        ,362.80807,237.0            
455  ,11.0   ,47   ,2.0    ,1076.0        ,3.0       ,5.0        ,2003.0 ,0.0   ,2.0,2011.0     ,4.0          ,3.0        ,555.7551 ,1076.0           
456  ,11.0   ,47   ,3.0    ,321.0         ,3.0       ,5.0        ,2003.0 ,0.0   ,1.0,2011.0     ,4.0          ,2.0        ,484.6154 ,321.0            
457  ,11.0   ,47   ,4.0    ,80.0          ,3.0       ,5.0        ,2003.0 ,0.0   ,2.0,2011.0     ,4.0          ,1.0        ,625.5417 ,80.0             
458  ,11.0   ,48   ,1.0    ,400.0         ,7.0       ,9.0        ,1016.0 ,0.0   ,1.0,1016.0     ,2.0          ,2.0        ,362.80807,400.0            
459  ,11.0   ,48   ,2.0    ,399.0         ,7.0       ,9.0        ,1016.0 ,0.0   ,2.0,1016.0     ,2.0          ,1.0        ,555.7551 ,399.0            
460  ,11.0   ,49   ,1.0    ,237.0         ,7.0       ,2.0        ,1298.0 ,1.0   ,1.0,1317.0     ,3.0          ,3.0        ,362.80807,237.0            
461  ,11.0   ,49   ,2.0    ,838.0         ,7.0       ,2.0        ,1298.0 ,1.0   ,2.0,1317.0     ,3.0          ,2.0        ,555.7551 ,838.0            
462  ,11.0   ,49   ,3.0    ,40.0          ,7.0       ,2.0        ,1298.0 ,1.0   ,1.0,1317.0     ,3.0          ,1.0        ,484.6154 ,40.0             
463  ,11.0   ,50   ,1.0    ,458.0         ,5.0       ,8.0        ,1037.0 ,1.0   ,1.0,1059.0     ,2.0          ,2.0        ,362.80807,458.0            
464  ,11.0   ,50   ,2.0    ,402.0         ,5.0       ,8.0        ,1037.0 ,1.0   ,2.0,1059.0     ,2.0          ,1.0        ,555.7551 ,402.0            
465  ,11.0   ,51   ,1.0    ,298.0         ,0.0       ,3.0        ,3648.0 ,0.0   ,1.0,3646.0     ,4.0          ,4.0        ,362.80807,298.0            
466  ,11.0   ,51   ,2.0    ,443.0         ,0.0       ,3.0        ,3648.0 ,0.0   ,2.0,3646.0     ,4.0          ,3.0        ,555.7551 ,443.0            
467  ,11.0   ,51   ,3.0    ,1650.0        ,0.0       ,3.0        ,3648.0 ,0.0   ,1.0,3646.0     ,4.0          ,2.0        ,484.6154 ,1650.0           
468  ,11.0   ,51   ,4.0    ,996.0         ,0.0       ,3.0        ,3648.0 ,0.0   ,2.0,3646.0     ,4.0          ,1.0        ,625.5417 ,996.0            
469  ,11.0   ,52   ,1.0    ,360.0         ,2.0       ,7.0        ,2179.0 ,0.0   ,1.0,2192.0     ,3.0          ,3.0        ,362.80807,360.0            
470  ,11.0   ,52   ,2.0    ,815.0         ,2.0       ,7.0        ,2179.0 ,0.0   ,2.0,2192.0     ,3.0          ,2.0        ,555.7551 ,815.0            
471  ,11.0   ,52   ,3.0    ,817.0         ,2.0       ,7.0        ,2179.0 ,0.0   ,1.0,2192.0     ,3.0          ,1.0        ,484.6154 ,817.0            
472  ,11.0   ,53   ,1.0    ,475.0         ,8.0       ,2.0        ,1302.0 ,1.0   ,1.0,1315.0     ,2.0          ,2.0        ,362.80807,475.0            
473  ,11.0   ,53   ,2.0    ,541.0         ,8.0       ,2.0        ,1302.0 ,1.0   ,2.0,1315.0     ,2.0          ,1.0        ,555.7551 ,541.0            
474  ,11.0   ,54   ,1.0    ,395.0         ,9.0       ,10.0       ,1193.0 ,0.0   ,1.0,1194.0     ,2.0          ,2.0        ,362.80807,395.0            
475  ,11.0   ,54   ,2.0    ,601.0         ,9.0       ,10.0       ,1193.0 ,0.0   ,2.0,1194.0     ,2.0          ,1.0        ,555.7551 ,601.0            
476  ,11.0   ,55   ,1.0    ,295.0         ,4.0       ,8.0        ,1082.0 ,0.0   ,1.0,1097.0     ,2.0          ,2.0        ,362.80807,295.0            
477  ,11.0   ,55   ,2.0    ,578.0         ,4.0       ,8.0        ,1082.0 ,0.0   ,2.0,1097.0     ,2.0          ,1.0        ,555.7551 ,578.0            
478  ,11.0   ,56   ,1.0    ,335.0         ,2.0       ,0.0        ,1311.0 ,1.0   ,1.0,1336.0     ,3.0          ,3.0        ,362.80807,335.0            
479  ,11.0   ,56   ,2.0    ,463.0         ,2.0       ,0.0        ,1311.0 ,1.0   ,2.0,1336.0     ,3.0          ,2.0        ,555.7551 ,463.0            
480  ,11.0   ,56   ,3.0    ,301.0         ,2.0       ,0.0        ,1311.0 ,1.0   ,1.0,1336.0     ,3.0          ,1.0        ,484.6154 ,301.0            
481  ,11.0   ,57   ,1.0    ,348.0         ,4.0       ,8.0        ,1021.0 ,1.0   ,1.0,1040.0     ,2.0          ,2.0        ,362.80807,348.0            
482  ,11.0   ,57   ,2.0    ,422.0         ,4.0       ,8.0        ,1021.0 ,1.0   ,2.0,1040.0     ,2.0          ,1.0        ,555.7551 ,422.0            
483  ,11.0   ,58   ,1.0    ,320.0         ,0.0       ,3.0        ,1141.0 ,1.0   ,1.0,1148.0     ,3.0          ,3.0        ,362.80807,320.0            
484  ,11.0   ,58   ,2.0    ,517.0         ,0.0       ,3.0        ,1141.0 ,1.0   ,2.0,1148.0     ,3.0          ,2.0        ,555.7551 ,517.0            
485  ,11.0   ,58   ,3.0    ,98.0          ,0.0       ,3.0        ,1141.0 ,1.0   ,1.0,1148.0     ,3.0          ,1.0        ,484.6154 ,98.0             
486  ,11.0   ,59   ,1.0    ,241.0         ,9.0       ,8.0        ,849.0  ,1.0   ,1.0,858.0      ,2.0          ,2.0        ,362.80807,241.0            
487  ,11.0   ,59   ,2.0    ,399.0         ,9.0       ,8.0        ,849.0  ,1.0   ,2.0,858.0      ,2.0          ,1.0        ,555.7551 ,399.0            
488  ,11.0   ,60   ,1.0    ,321.0         ,2.0       ,5.0        ,1466.0 ,1.0   ,1.0,1374.0     ,3.0          ,3.0        ,362.80807,321.0            
489  ,11.0   ,60   ,2.0    ,695.0         ,2.0       ,5.0        ,1466.0 ,1.0   ,2.0,1374.0     ,3.0          ,2.0        ,555.7551 ,695.0            
490  ,11.0   ,60   ,3.0    ,140.0         ,2.0       ,5.0        ,1466.0 ,1.0   ,1.0,1374.0     ,3.0          ,1.0        ,484.6154 ,140.0            
491  ,11.0   ,61   ,1.0    ,196.0         ,7.0       ,8.0        ,1178.0 ,0.0   ,1.0,1197.0     ,2.0          ,2.0        ,362.80807,196.0            
492  ,11.0   ,61   ,2.0    ,738.0         ,7.0       ,8.0        ,1178.0 ,0.0   ,2.0,1197.0     ,2.0          ,1.0        ,555.7551 ,738.0            
493  ,11.0   ,62   ,1.0    ,200.0         ,4.0       ,10.0       ,1217.0 ,1.0   ,1.0,1236.0     ,3.0          ,3.0        ,362.80807,200.0            
494  ,11.0   ,62   ,2.0    ,559.0         ,4.0       ,10.0       ,1217.0 ,1.0   ,2.0,1236.0     ,3.0          ,2.0        ,555.7551 ,559.0            
495  ,11.0   ,62   ,3.0    ,176.0         ,4.0       ,10.0       ,1217.0 ,1.0   ,1.0,1236.0     ,3.0          ,1.0        ,484.6154 ,176.0            
496  ,11.0   ,63   ,1.0    ,339.0         ,8.0       ,8.0        ,854.0  ,1.0   ,1.0,858.0      ,2.0          ,2.0        ,362.80807,339.0            
497  ,11.0   ,63   ,2.0    ,280.0         ,8.0       ,8.0        ,854.0  ,1.0   ,2.0,858.0      ,2.0          ,1.0        ,555.7551 ,280.0            
498  ,11.0   ,64   ,1.0    ,374.0         ,10.0      ,9.0        ,1325.0 ,1.0   ,1.0,1335.0     ,2.0          ,2.0        ,362.80807,374.0            
499  ,11.0   ,64   ,2.0    ,761.0         ,10.0      ,9.0        ,1325.0 ,1.0   ,2.0,1335.0     ,2.0          ,1.0        ,555.7551 ,761.0            
500  ,11.0   ,65   ,1.0    ,244.0         ,6.0       ,0.0        ,1685.0 ,0.0   ,1.0,1696.0     ,4.0          ,4.0        ,362.80807,244.0            
501  ,11.0   ,65   ,2.0    ,462.0         ,6.0       ,0.0        ,1685.0 ,0.0   ,2.0,1696.0     ,4.0          ,3.0        ,555.7551 ,462.0            
502  ,11.0   ,65   ,3.0    ,497.0         ,6.0       ,0.0        ,1685.0 ,0.0   ,1.0,1696.0     ,4.0          ,2.0        ,484.6154 ,497.0            
503  ,11.0   ,65   ,4.0    ,184.0         ,6.0       ,0.0        ,1685.0 ,0.0   ,2.0,1696.0     ,4.0          ,1.0        ,625.5417 ,184.0            
504  ,11.0   ,66   ,1.0    ,80.0          ,8.0       ,1.0        ,2164.0 ,1.0   ,1.0,2169.0     ,7.0          ,7.0        ,362.80807,362.80807        
505  ,11.0   ,66   ,2.0    ,19.0          ,8.0       ,1.0        ,2164.0 ,1.0   ,2.0,2169.0     ,7.0          ,6.0        ,555.7551 ,19.0             
506  ,11.0   ,66   ,3.0    ,122.0         ,8.0       ,1.0        ,2164.0 ,1.0   ,1.0,2169.0     ,7.0          ,5.0        ,484.6154 ,122.0            
507  ,11.0   ,66   ,4.0    ,662.0         ,8.0       ,1.0        ,2164.0 ,1.0   ,2.0,2169.0     ,7.0          ,4.0        ,625.5417 ,662.0            
508  ,11.0   ,66   ,5.0    ,214.0         ,8.0       ,1.0        ,2164.0 ,1.0   ,1.0,2169.0     ,7.0          ,3.0        ,346.27274,214.0            
509  ,11.0   ,66   ,6.0    ,549.0         ,8.0       ,1.0        ,2164.0 ,1.0   ,2.0,2169.0     ,7.0          ,2.0        ,529.6    ,549.0            
510  ,11.0   ,66   ,7.0    ,308.0         ,8.0       ,1.0        ,2164.0 ,1.0   ,1.0,2169.0     ,7.0          ,1.0        ,269.0    ,308.0            
511  ,11.0   ,67   ,1.0    ,538.0         ,1.0       ,5.0        ,1379.0 ,0.0   ,2.0,1395.0     ,3.0          ,3.0        ,362.80807,538.0            
512  ,11.0   ,67   ,2.0    ,400.0         ,1.0       ,5.0        ,1379.0 ,0.0   ,1.0,1395.0     ,3.0          ,2.0        ,555.7551 ,400.0            
513  ,11.0   ,67   ,3.0    ,238.0         ,1.0       ,5.0        ,1379.0 ,0.0   ,2.0,1395.0     ,3.0          ,1.0        ,484.6154 ,238.0            
514  ,11.0   ,68   ,1.0    ,219.0         ,0.0       ,5.0        ,2449.0 ,0.0   ,1.0,2471.0     ,4.0          ,4.0        ,362.80807,219.0            
515  ,11.0   ,68   ,2.0    ,374.0         ,0.0       ,5.0        ,2449.0 ,0.0   ,2.0,2471.0     ,4.0          ,3.0        ,555.7551 ,374.0            
516  ,11.0   ,68   ,3.0    ,641.0         ,0.0       ,5.0        ,2449.0 ,0.0   ,1.0,2471.0     ,4.0          ,2.0        ,484.6154 ,641.0            
517  ,11.0   ,68   ,4.0    ,977.0         ,0.0       ,5.0        ,2449.0 ,0.0   ,2.0,2471.0     ,4.0          ,1.0        ,625.5417 ,977.0            
518  ,11.0   ,69   ,1.0    ,459.0         ,1.0       ,5.0        ,1111.0 ,0.0   ,1.0,1116.0     ,2.0          ,2.0        ,362.80807,459.0            
519  ,11.0   ,69   ,2.0    ,438.0         ,1.0       ,5.0        ,1111.0 ,0.0   ,2.0,1116.0     ,2.0          ,1.0        ,555.7551 ,438.0            
520  ,11.0   ,70   ,1.0    ,279.0         ,7.0       ,4.0        ,2380.0 ,1.0   ,1.0,2393.0     ,4.0          ,4.0        ,362.80807,279.0            
521  ,11.0   ,70   ,2.0    ,576.0         ,7.0       ,4.0        ,2380.0 ,1.0   ,2.0,2393.0     ,4.0          ,3.0        ,555.7551 ,576.0            
522  ,11.0   ,70   ,3.0    ,558.0         ,7.0       ,4.0        ,2380.0 ,1.0   ,1.0,2393.0     ,4.0          ,2.0        ,484.6154 ,558.0            
523  ,11.0   ,70   ,4.0    ,615.0         ,7.0       ,4.0        ,2380.0 ,1.0   ,2.0,2393.0     ,4.0          ,1.0        ,625.5417 ,615.0            
524  ,11.0   ,71   ,1.0    ,182.0         ,4.0       ,2.0        ,1305.0 ,1.0   ,1.0,1313.0     ,3.0          ,3.0        ,362.80807,182.0            
525  ,11.0   ,71   ,2.0    ,660.0         ,4.0       ,2.0        ,1305.0 ,1.0   ,2.0,1313.0     ,3.0          ,2.0        ,555.7551 ,660.0            
526  ,11.0   ,71   ,3.0    ,217.0         ,4.0       ,2.0        ,1305.0 ,1.0   ,1.0,1313.0     ,3.0          ,1.0        ,484.6154 ,217.0            
527  ,11.0   ,72   ,1.0    ,220.0         ,8.0       ,2.0        ,1166.0 ,1.0   ,2.0,1169.0     ,3.0          ,3.0        ,362.80807,220.0            
528  ,11.0   ,72   ,2.0    ,295.0         ,8.0       ,2.0        ,1166.0 ,1.0   ,1.0,1169.0     ,3.0          ,2.0        ,555.7551 ,295.0            
529  ,11.0   ,72   ,3.0    ,398.0         ,8.0       ,2.0        ,1166.0 ,1.0   ,2.0,1169.0     ,3.0          ,1.0        ,484.6154 ,398.0            
530  ,11.0   ,73   ,1.0    ,222.0         ,7.0       ,7.0        ,1279.0 ,0.0   ,1.0,1296.0     ,2.0          ,2.0        ,362.80807,222.0            
531  ,11.0   ,73   ,2.0    ,851.0         ,7.0       ,7.0        ,1279.0 ,0.0   ,2.0,1296.0     ,2.0          ,1.0        ,555.7551 ,851.0            
532  ,11.0   ,74   ,1.0    ,482.0         ,2.0       ,1.0        ,1877.0 ,0.0   ,1.0,1893.0     ,2.0          ,2.0        ,362.80807,482.0            
533  ,11.0   ,74   ,2.0    ,1192.0        ,2.0       ,1.0        ,1877.0 ,0.0   ,2.0,1893.0     ,2.0          ,1.0        ,555.7551 ,1192.0           
534  ,11.0   ,75   ,1.0    ,245.0         ,4.0       ,10.0       ,941.0  ,0.0   ,1.0,955.0      ,2.0          ,2.0        ,362.80807,245.0            
535  ,11.0   ,75   ,2.0    ,473.0         ,4.0       ,10.0       ,941.0  ,0.0   ,2.0,955.0      ,2.0          ,1.0        ,555.7551 ,473.0            
536  ,11.0   ,76   ,1.0    ,97.0          ,8.0       ,8.0        ,1456.0 ,1.0   ,1.0,1456.0     ,3.0          ,3.0        ,362.80807,362.80807        
537  ,11.0   ,76   ,2.0    ,339.0         ,8.0       ,8.0        ,1456.0 ,1.0   ,2.0,1456.0     ,3.0          ,2.0        ,555.7551 ,339.0            
538  ,11.0   ,76   ,3.0    ,758.0         ,8.0       ,8.0        ,1456.0 ,1.0   ,1.0,1456.0     ,3.0          ,1.0        ,484.6154 ,758.0            
539  ,11.0   ,77   ,1.0    ,17.0          ,0.0       ,6.0        ,2263.0 ,1.0   ,1.0,2284.0     ,4.0          ,4.0        ,362.80807,362.80807        
540  ,11.0   ,77   ,2.0    ,278.0         ,0.0       ,6.0        ,2263.0 ,1.0   ,2.0,2284.0     ,4.0          ,3.0        ,555.7551 ,278.0            
541  ,11.0   ,77   ,3.0    ,540.0         ,0.0       ,6.0        ,2263.0 ,1.0   ,1.0,2284.0     ,4.0          ,2.0        ,484.6154 ,540.0            
542  ,11.0   ,77   ,4.0    ,481.0         ,0.0       ,6.0        ,2263.0 ,1.0   ,2.0,2284.0     ,4.0          ,1.0        ,625.5417 ,481.0            
543  ,11.0   ,78   ,1.0    ,201.0         ,9.0       ,10.0       ,743.0  ,1.0   ,1.0,754.0      ,2.0          ,2.0        ,362.80807,201.0            
544  ,11.0   ,78   ,2.0    ,73.0          ,9.0       ,10.0       ,743.0  ,1.0   ,2.0,754.0      ,2.0          ,1.0        ,555.7551 ,73.0             
545  ,11.0   ,79   ,1.0    ,241.0         ,8.0       ,5.0        ,998.0  ,1.0   ,1.0,1014.0     ,3.0          ,3.0        ,362.80807,241.0            
546  ,11.0   ,79   ,2.0    ,319.0         ,8.0       ,5.0        ,998.0  ,1.0   ,2.0,1014.0     ,3.0          ,2.0        ,555.7551 ,319.0            
547  ,11.0   ,79   ,3.0    ,200.0         ,8.0       ,5.0        ,998.0  ,1.0   ,1.0,1014.0     ,3.0          ,1.0        ,484.6154 ,200.0            
548  ,11.0   ,80   ,1.0    ,279.0         ,2.0       ,9.0        ,878.0  ,0.0   ,2.0,897.0      ,2.0          ,2.0        ,362.80807,279.0            
549  ,11.0   ,80   ,2.0    ,236.0         ,2.0       ,9.0        ,878.0  ,0.0   ,1.0,897.0      ,2.0          ,1.0        ,555.7551 ,236.0            
550  ,11.0   ,81   ,1.0    ,283.0         ,2.0       ,1.0        ,1639.0 ,1.0   ,2.0,1653.0     ,4.0          ,4.0        ,362.80807,283.0            
551  ,11.0   ,81   ,2.0    ,475.0         ,2.0       ,1.0        ,1639.0 ,1.0   ,1.0,1653.0     ,4.0          ,3.0        ,555.7551 ,475.0            
552  ,11.0   ,81   ,3.0    ,520.0         ,2.0       ,1.0        ,1639.0 ,1.0   ,2.0,1653.0     ,4.0          ,2.0        ,484.6154 ,520.0            
553  ,11.0   ,81   ,4.0    ,100.0         ,2.0       ,1.0        ,1639.0 ,1.0   ,1.0,1653.0     ,4.0          ,1.0        ,625.5417 ,100.0            
554  ,11.0   ,82   ,1.0    ,583.0         ,9.0       ,6.0        ,1535.0 ,1.0   ,1.0,1559.0     ,3.0          ,3.0        ,362.80807,583.0            
555  ,11.0   ,82   ,2.0    ,513.0         ,9.0       ,6.0        ,1535.0 ,1.0   ,2.0,1559.0     ,3.0          ,2.0        ,555.7551 ,513.0            
556  ,11.0   ,82   ,3.0    ,82.0          ,9.0       ,6.0        ,1535.0 ,1.0   ,1.0,1559.0     ,3.0          ,1.0        ,484.6154 ,82.0             
557  ,11.0   ,83   ,1.0    ,199.0         ,2.0       ,8.0        ,1204.0 ,0.0   ,1.0,1215.0     ,2.0          ,2.0        ,362.80807,199.0            
558  ,11.0   ,83   ,2.0    ,697.0         ,2.0       ,8.0        ,1204.0 ,0.0   ,2.0,1215.0     ,2.0          ,1.0        ,555.7551 ,697.0            
559  ,11.0   ,84   ,1.0    ,229.0         ,10.0      ,5.0        ,1103.0 ,0.0   ,1.0,1116.0     ,2.0          ,2.0        ,362.80807,229.0            
560  ,11.0   ,84   ,2.0    ,597.0         ,10.0      ,5.0        ,1103.0 ,0.0   ,2.0,1116.0     ,2.0          ,1.0        ,555.7551 ,597.0            
561  ,11.0   ,86   ,1.0    ,338.0         ,10.0      ,7.0        ,896.0  ,1.0   ,1.0,910.0      ,2.0          ,2.0        ,362.80807,338.0            
562  ,11.0   ,86   ,2.0    ,250.0         ,10.0      ,7.0        ,896.0  ,1.0   ,2.0,910.0      ,2.0          ,1.0        ,555.7551 ,250.0            
563  ,11.0   ,87   ,1.0    ,279.0         ,8.0       ,2.0        ,1008.0 ,1.0   ,1.0,1021.0     ,2.0          ,2.0        ,362.80807,279.0            
564  ,11.0   ,87   ,2.0    ,483.0         ,8.0       ,2.0        ,1008.0 ,1.0   ,2.0,1021.0     ,2.0          ,1.0        ,555.7551 ,483.0            
565  ,11.0   ,88   ,1.0    ,278.0         ,3.0       ,10.0       ,875.0  ,0.0   ,1.0,717.0      ,2.0          ,2.0        ,362.80807,278.0            
566  ,11.0   ,88   ,2.0    ,239.0         ,3.0       ,10.0       ,875.0  ,0.0   ,2.0,717.0      ,2.0          ,1.0        ,555.7551 ,239.0            
567  ,11.0   ,89   ,1.0    ,303.0         ,0.0       ,0.0        ,1477.0 ,1.0   ,2.0,1491.0     ,2.0          ,2.0        ,362.80807,303.0            
568  ,11.0   ,89   ,2.0    ,836.0         ,0.0       ,0.0        ,1477.0 ,1.0   ,1.0,1491.0     ,2.0          ,1.0        ,555.7551 ,836.0            
569  ,11.0   ,90   ,1.0    ,205.0         ,8.0       ,7.0        ,944.0  ,0.0   ,1.0,957.0      ,2.0          ,2.0        ,362.80807,205.0            
570  ,11.0   ,90   ,2.0    ,518.0         ,8.0       ,7.0        ,944.0  ,0.0   ,2.0,957.0      ,2.0          ,1.0        ,555.7551 ,518.0            
571  ,11.0   ,91   ,1.0    ,261.0         ,8.0       ,4.0        ,1690.0 ,1.0   ,1.0,1693.0     ,5.0          ,5.0        ,362.80807,261.0            
572  ,11.0   ,91   ,2.0    ,420.0         ,8.0       ,4.0        ,1690.0 ,1.0   ,2.0,1693.0     ,5.0          ,4.0        ,555.7551 ,420.0            
573  ,11.0   ,91   ,3.0    ,201.0         ,8.0       ,4.0        ,1690.0 ,1.0   ,1.0,1693.0     ,5.0          ,3.0        ,484.6154 ,201.0            
574  ,11.0   ,91   ,4.0    ,320.0         ,8.0       ,4.0        ,1690.0 ,1.0   ,2.0,1693.0     ,5.0          ,2.0        ,625.5417 ,320.0            
575  ,11.0   ,91   ,5.0    ,80.0          ,8.0       ,4.0        ,1690.0 ,1.0   ,1.0,1693.0     ,5.0          ,1.0        ,346.27274,80.0             
576  ,11.0   ,92   ,1.0    ,200.0         ,6.0       ,10.0       ,667.0  ,0.0   ,1.0,678.0      ,2.0          ,2.0        ,362.80807,200.0            
577  ,11.0   ,92   ,2.0    ,259.0         ,6.0       ,10.0       ,667.0  ,0.0   ,2.0,678.0      ,2.0          ,1.0        ,555.7551 ,259.0            
578  ,11.0   ,93   ,1.0    ,638.0         ,4.0       ,5.0        ,1015.0 ,0.0   ,2.0,1037.0     ,2.0          ,2.0        ,362.80807,638.0            
579  ,11.0   ,93   ,2.0    ,100.0         ,4.0       ,5.0        ,1015.0 ,0.0   ,1.0,1037.0     ,2.0          ,1.0        ,555.7551 ,100.0            
580  ,11.0   ,94   ,1.0    ,219.0         ,8.0       ,1.0        ,812.0  ,1.0   ,2.0,837.0      ,2.0          ,2.0        ,362.80807,219.0            
581  ,11.0   ,94   ,2.0    ,360.0         ,8.0       ,1.0        ,812.0  ,1.0   ,1.0,837.0      ,2.0          ,1.0        ,555.7551 ,360.0            
582  ,11.0   ,95   ,1.0    ,480.0         ,8.0       ,9.0        ,1113.0 ,0.0   ,2.0,1116.0     ,3.0          ,3.0        ,362.80807,480.0            
583  ,11.0   ,95   ,2.0    ,220.0         ,8.0       ,9.0        ,1113.0 ,0.0   ,1.0,1116.0     ,3.0          ,2.0        ,555.7551 ,220.0            
584  ,11.0   ,95   ,3.0    ,197.0         ,8.0       ,9.0        ,1113.0 ,0.0   ,2.0,1116.0     ,3.0          ,1.0        ,484.6154 ,197.0            
585  ,11.0   ,96   ,1.0    ,259.0         ,1.0       ,1.0        ,1401.0 ,0.0   ,2.0,1415.0     ,3.0          ,3.0        ,362.80807,259.0            
586  ,11.0   ,96   ,2.0    ,622.0         ,1.0       ,1.0        ,1401.0 ,0.0   ,1.0,1415.0     ,3.0          ,2.0        ,555.7551 ,622.0            
587  ,11.0   ,96   ,3.0    ,279.0         ,1.0       ,1.0        ,1401.0 ,0.0   ,2.0,1415.0     ,3.0          ,1.0        ,484.6154 ,279.0            
588  ,11.0   ,97   ,1.0    ,500.0         ,4.0       ,2.0        ,1332.0 ,0.0   ,2.0,1335.0     ,2.0          ,2.0        ,362.80807,500.0            
589  ,11.0   ,97   ,2.0    ,60.0          ,4.0       ,2.0        ,1332.0 ,0.0   ,1.0,1335.0     ,2.0          ,1.0        ,555.7551 ,60.0             
590  ,11.0   ,98   ,1.0    ,296.0         ,10.0      ,6.0        ,728.0  ,1.0   ,1.0,737.0      ,2.0          ,2.0        ,362.80807,296.0            
591  ,11.0   ,98   ,2.0    ,80.0          ,10.0      ,6.0        ,728.0  ,1.0   ,2.0,737.0      ,2.0          ,1.0        ,555.7551 ,80.0             
592  ,11.0   ,99   ,1.0    ,197.0         ,10.0      ,8.0        ,1106.0 ,1.0   ,1.0,1065.0     ,3.0          ,3.0        ,362.80807,197.0            
593  ,11.0   ,99   ,2.0    ,320.0         ,10.0      ,8.0        ,1106.0 ,1.0   ,2.0,1065.0     ,3.0          ,2.0        ,555.7551 ,320.0            
594  ,11.0   ,99   ,3.0    ,20.0          ,10.0      ,8.0        ,1106.0 ,1.0   ,1.0,1065.0     ,3.0          ,1.0        ,484.6154 ,20.0             
595  ,11.0   ,100  ,1.0    ,516.0         ,3.0       ,1.0        ,1561.0 ,0.0   ,1.0,1571.0     ,2.0          ,2.0        ,362.80807,516.0            
596  ,11.0   ,100  ,2.0    ,776.0         ,3.0       ,1.0        ,1561.0 ,0.0   ,2.0,1571.0     ,2.0          ,1.0        ,555.7551 ,776.0            
597  ,13.0   ,1    ,1.0    ,1036.0        ,1.0       ,2.0        ,3848.0 ,0.0   ,1.0,3862.0     ,4.0          ,4.0        ,1051.91  ,1036.0           
598  ,13.0   ,1    ,2.0    ,757.0         ,1.0       ,2.0        ,3848.0 ,0.0   ,2.0,3862.0     ,4.0          ,3.0        ,1367.24  ,757.0            
599  ,13.0   ,1    ,3.0    ,997.0         ,1.0       ,2.0        ,3848.0 ,0.0   ,1.0,3862.0     ,4.0          ,2.0        ,1049.4762,997.0            
600  ,13.0   ,1    ,4.0    ,757.0         ,1.0       ,2.0        ,3848.0 ,0.0   ,2.0,3862.0     ,4.0          ,1.0        ,1065.2222,757.0            
601  ,13.0   ,2    ,1.0    ,1176.0        ,2.0       ,0.0        ,2885.0 ,1.0   ,1.0,2889.0     ,3.0          ,3.0        ,1051.91  ,1176.0           
602  ,13.0   ,2    ,2.0    ,697.0         ,2.0       ,0.0        ,2885.0 ,1.0   ,2.0,2889.0     ,3.0          ,2.0        ,1367.24  ,697.0            
603  ,13.0   ,2    ,3.0    ,738.0         ,2.0       ,0.0        ,2885.0 ,1.0   ,1.0,2889.0     ,3.0          ,1.0        ,1049.4762,738.0            
604  ,13.0   ,3    ,1.0    ,1612.0        ,2.0       ,3.0        ,6540.0 ,1.0   ,1.0,6558.0     ,5.0          ,5.0        ,1051.91  ,1612.0           
605  ,13.0   ,3    ,2.0    ,1634.0        ,2.0       ,3.0        ,6540.0 ,1.0   ,2.0,6558.0     ,5.0          ,4.0        ,1367.24  ,1634.0           
606  ,13.0   ,3    ,3.0    ,1396.0        ,2.0       ,3.0        ,6540.0 ,1.0   ,1.0,6558.0     ,5.0          ,3.0        ,1049.4762,1396.0           
607  ,13.0   ,3    ,4.0    ,518.0         ,2.0       ,3.0        ,6540.0 ,1.0   ,2.0,6558.0     ,5.0          ,2.0        ,1065.2222,518.0            
608  ,13.0   ,3    ,5.0    ,998.0         ,2.0       ,3.0        ,6540.0 ,1.0   ,1.0,6558.0     ,5.0          ,1.0        ,1069.7693,998.0            
609  ,13.0   ,4    ,1.0    ,857.0         ,1.0       ,0.0        ,2175.0 ,1.0   ,1.0,2190.0     ,3.0          ,3.0        ,1051.91  ,857.0            
610  ,13.0   ,4    ,2.0    ,677.0         ,1.0       ,0.0        ,2175.0 ,1.0   ,2.0,2190.0     ,3.0          ,2.0        ,1367.24  ,677.0            
611  ,13.0   ,4    ,3.0    ,379.0         ,1.0       ,0.0        ,2175.0 ,1.0   ,1.0,2190.0     ,3.0          ,1.0        ,1049.4762,379.0            
612  ,13.0   ,5    ,1.0    ,597.0         ,2.0       ,2.0        ,12619.0,0.0   ,1.0,12636.0    ,8.0          ,8.0        ,1051.91  ,597.0            
613  ,13.0   ,5    ,2.0    ,3448.0        ,2.0       ,2.0        ,12619.0,0.0   ,2.0,12636.0    ,8.0          ,7.0        ,1367.24  ,3448.0           
614  ,13.0   ,5    ,3.0    ,2312.0        ,2.0       ,2.0        ,12619.0,0.0   ,1.0,12636.0    ,8.0          ,6.0        ,1049.4762,2312.0           
615  ,13.0   ,5    ,4.0    ,876.0         ,2.0       ,2.0        ,12619.0,0.0   ,2.0,12636.0    ,8.0          ,5.0        ,1065.2222,876.0            
616  ,13.0   ,5    ,5.0    ,1056.0        ,2.0       ,2.0        ,12619.0,0.0   ,1.0,12636.0    ,8.0          ,4.0        ,1069.7693,1056.0           
617  ,13.0   ,5    ,6.0    ,1116.0        ,2.0       ,2.0        ,12619.0,0.0   ,2.0,12636.0    ,8.0          ,3.0        ,1220.2858,1116.0           
618  ,13.0   ,5    ,7.0    ,1575.0        ,2.0       ,2.0        ,12619.0,0.0   ,1.0,12636.0    ,8.0          ,2.0        ,948.6667 ,1575.0           
619  ,13.0   ,5    ,8.0    ,160.0         ,2.0       ,2.0        ,12619.0,0.0   ,2.0,12636.0    ,8.0          ,1.0        ,1335.4   ,160.0            
620  ,13.0   ,6    ,1.0    ,597.0         ,4.0       ,1.0        ,4507.0 ,1.0   ,1.0,4523.0     ,3.0          ,3.0        ,1051.91  ,597.0            
621  ,13.0   ,6    ,2.0    ,2571.0        ,4.0       ,1.0        ,4507.0 ,1.0   ,2.0,4523.0     ,3.0          ,2.0        ,1367.24  ,2571.0           
622  ,13.0   ,6    ,3.0    ,1016.0        ,4.0       ,1.0        ,4507.0 ,1.0   ,1.0,4523.0     ,3.0          ,1.0        ,1049.4762,1016.0           
623  ,13.0   ,7    ,1.0    ,664.0         ,0.0       ,0.0        ,8347.0 ,0.0   ,1.0,8371.0     ,6.0          ,6.0        ,1051.91  ,664.0            
624  ,13.0   ,7    ,2.0    ,2065.0        ,0.0       ,0.0        ,8347.0 ,0.0   ,2.0,8371.0     ,6.0          ,5.0        ,1367.24  ,2065.0           
625  ,13.0   ,7    ,3.0    ,1555.0        ,0.0       ,0.0        ,8347.0 ,0.0   ,1.0,8371.0     ,6.0          ,4.0        ,1049.4762,1555.0           
626  ,13.0   ,7    ,4.0    ,1077.0        ,0.0       ,0.0        ,8347.0 ,0.0   ,2.0,8371.0     ,6.0          ,3.0        ,1065.2222,1077.0           
627  ,13.0   ,7    ,5.0    ,458.0         ,0.0       ,0.0        ,8347.0 ,0.0   ,1.0,8371.0     ,6.0          ,2.0        ,1069.7693,458.0            
628  ,13.0   ,7    ,6.0    ,2213.0        ,0.0       ,0.0        ,8347.0 ,0.0   ,2.0,8371.0     ,6.0          ,1.0        ,1220.2858,2213.0           
629  ,13.0   ,8    ,1.0    ,3368.0        ,1.0       ,3.0        ,4549.0 ,0.0   ,1.0,4565.0     ,2.0          ,2.0        ,1051.91  ,3368.0           
630  ,13.0   ,8    ,2.0    ,699.0         ,1.0       ,3.0        ,4549.0 ,0.0   ,2.0,4565.0     ,2.0          ,1.0        ,1367.24  ,699.0            
631  ,13.0   ,9    ,1.0    ,716.0         ,3.0       ,2.0        ,3514.0 ,1.0   ,1.0,3527.0     ,4.0          ,4.0        ,1051.91  ,716.0            
632  ,13.0   ,9    ,2.0    ,857.0         ,3.0       ,2.0        ,3514.0 ,1.0   ,2.0,3527.0     ,4.0          ,3.0        ,1367.24  ,857.0            
633  ,13.0   ,9    ,3.0    ,518.0         ,3.0       ,2.0        ,3514.0 ,1.0   ,1.0,3527.0     ,4.0          ,2.0        ,1049.4762,518.0            
634  ,13.0   ,9    ,4.0    ,1095.0        ,3.0       ,2.0        ,3514.0 ,1.0   ,2.0,3527.0     ,4.0          ,1.0        ,1065.2222,1095.0           
635  ,13.0   ,10   ,1.0    ,338.0         ,0.0       ,2.0        ,2127.0 ,0.0   ,1.0,2132.0     ,2.0          ,2.0        ,1051.91  ,338.0            
636  ,13.0   ,10   ,2.0    ,1475.0        ,0.0       ,2.0        ,2127.0 ,0.0   ,2.0,2132.0     ,2.0          ,1.0        ,1367.24  ,1475.0           
637  ,13.0   ,11   ,1.0    ,717.0         ,1.0       ,4.0        ,2383.0 ,0.0   ,1.0,2391.0     ,2.0          ,2.0        ,1051.91  ,717.0            
638  ,13.0   ,11   ,2.0    ,1395.0        ,1.0       ,4.0        ,2383.0 ,0.0   ,2.0,2391.0     ,2.0          ,1.0        ,1367.24  ,1395.0           
639  ,13.0   ,12   ,1.0    ,995.0         ,4.0       ,2.0        ,9526.0 ,1.0   ,1.0,9546.0     ,5.0          ,5.0        ,1051.91  ,995.0            
640  ,13.0   ,12   ,2.0    ,3867.0        ,4.0       ,2.0        ,9526.0 ,1.0   ,2.0,9546.0     ,5.0          ,4.0        ,1367.24  ,3867.0           
641  ,13.0   ,12   ,3.0    ,1076.0        ,4.0       ,2.0        ,9526.0 ,1.0   ,1.0,9546.0     ,5.0          ,3.0        ,1049.4762,1076.0           
642  ,13.0   ,12   ,4.0    ,3190.0        ,4.0       ,2.0        ,9526.0 ,1.0   ,2.0,9546.0     ,5.0          ,2.0        ,1065.2222,3190.0           
643  ,13.0   ,12   ,5.0    ,140.0         ,4.0       ,2.0        ,9526.0 ,1.0   ,1.0,9546.0     ,5.0          ,1.0        ,1069.7693,140.0            
644  ,13.0   ,13   ,1.0    ,1253.0        ,1.0       ,3.0        ,2193.0 ,0.0   ,1.0,2212.0     ,2.0          ,2.0        ,1051.91  ,1253.0           
645  ,13.0   ,13   ,2.0    ,659.0         ,1.0       ,3.0        ,2193.0 ,0.0   ,2.0,2212.0     ,2.0          ,1.0        ,1367.24  ,659.0            
646  ,13.0   ,14   ,1.0    ,3264.0        ,2.0       ,0.0        ,5808.0 ,1.0   ,1.0,5819.0     ,3.0          ,3.0        ,1051.91  ,3264.0           
647  ,13.0   ,14   ,2.0    ,901.0         ,2.0       ,0.0        ,5808.0 ,1.0   ,2.0,5819.0     ,3.0          ,2.0        ,1367.24  ,901.0            
648  ,13.0   ,14   ,3.0    ,793.0         ,2.0       ,0.0        ,5808.0 ,1.0   ,1.0,5819.0     ,3.0          ,1.0        ,1049.4762,793.0            
649  ,13.0   ,15   ,1.0    ,996.0         ,3.0       ,0.0        ,4362.0 ,1.0   ,1.0,4364.0     ,3.0          ,3.0        ,1051.91  ,996.0            
650  ,13.0   ,15   ,2.0    ,2730.0        ,3.0       ,0.0        ,4362.0 ,1.0   ,2.0,4364.0     ,3.0          ,2.0        ,1367.24  ,2730.0           
651  ,13.0   ,15   ,3.0    ,279.0         ,3.0       ,0.0        ,4362.0 ,1.0   ,1.0,4364.0     ,3.0          ,1.0        ,1049.4762,279.0            
652  ,13.0   ,16   ,1.0    ,2651.0        ,5.0       ,2.0        ,4429.0 ,1.0   ,1.0,4444.0     ,2.0          ,2.0        ,1051.91  ,2651.0           
653  ,13.0   ,16   ,2.0    ,1515.0        ,5.0       ,2.0        ,4429.0 ,1.0   ,2.0,4444.0     ,2.0          ,1.0        ,1367.24  ,1515.0           
654  ,13.0   ,17   ,1.0    ,658.0         ,2.0       ,3.0        ,1713.0 ,0.0   ,1.0,1733.0     ,2.0          ,2.0        ,1051.91  ,658.0            
655  ,13.0   ,17   ,2.0    ,837.0         ,2.0       ,3.0        ,1713.0 ,0.0   ,2.0,1733.0     ,2.0          ,1.0        ,1367.24  ,837.0            
656  ,13.0   ,18   ,1.0    ,1355.0        ,2.0       ,1.0        ,9120.0 ,0.0   ,1.0,9127.0     ,6.0          ,6.0        ,1051.91  ,1355.0           
657  ,13.0   ,18   ,2.0    ,2910.0        ,2.0       ,1.0        ,9120.0 ,0.0   ,2.0,9127.0     ,6.0          ,5.0        ,1367.24  ,2910.0           
658  ,13.0   ,18   ,3.0    ,1320.0        ,2.0       ,1.0        ,9120.0 ,0.0   ,1.0,9127.0     ,6.0          ,4.0        ,1049.4762,1320.0           
659  ,13.0   ,18   ,4.0    ,1870.0        ,2.0       ,1.0        ,9120.0 ,0.0   ,2.0,9127.0     ,6.0          ,3.0        ,1065.2222,1870.0           
660  ,13.0   ,18   ,5.0    ,1215.0        ,2.0       ,1.0        ,9120.0 ,0.0   ,1.0,9127.0     ,6.0          ,2.0        ,1069.7693,1215.0           
